[
	{
		"rt": 104795,
		"responses": "{\"Q0\":\"1\"}",
		"userAgent": "Mozilla/5.0 (Macintosh; Intel Mac OS X 10_13_6) AppleWebKit/537.36 (KHTML, like Gecko) Chrome/79.0.3945.117 Safari/537.36",
		"trial_type": "survey-text",
		"trial_index": 0,
		"time_elapsed": 104799,
		"internal_node_id": "0.0-0.0"
	},
	{
		"success": true,
		"trial_type": "fullscreen",
		"trial_index": 1,
		"time_elapsed": 106679,
		"internal_node_id": "0.0-1.0"
	},
	{
		"rt": 2559,
		"stimulus": "\n      <p style=\"text-align: center;\"><strong>Willkommen zum Experiment.</strong></p>\n      <p>Bevor Sie das Experiment fortf&uuml;hren k&ouml;nnen, fragen Sie sich, ob Sie die drei unteren Fragen bejaht beantworten k&ouml;nnen.</p>\n      <ol>\n      <li>Sind Sie in einer Umgebung, in der Sie ungest&ouml;rt f&uuml;r [X] Minuten an dem Experiment teilnehmen k&ouml;nnen?</li>\n      <li>Haben Sie elektronische Ger&auml;te, au&szlig;er das Ger&auml;t an dem Sie gerade teilnehmen, ausgeschaltet oder in den Flugmodus gestellt?</li>\n      <li>F&uuml;hlen Sie sich momentan wohl?</li>\n      </ol>\n      <p>Selbstverst&auml;ndlich ist ihnen &uuml;berlassen, das Experiement aufgrund von Unwohlseins jederzeit abzubrechen.</p>\n      <p>W&auml;hrend des Experiments wird in der Mitte des Browserfensters ein schwarzer Kreis angezeigt werden. F&uuml;r die Dauer des Experimentes fokussieren Sie diesen. Neben dem Kreis, also rechts und links, wird jeweils ein Wort eingeblendet. Nach einer gewissen Zeit blinken beide W&ouml;rter auf. Sie sollen nun entscheiden, welches Wort zuerst geblinkt hat.</p>\n      <ul style=\"list-style: none;\">\n      <li>F&uuml;r das obere Wort dr&uuml;cken Sie <strong>U</strong></li>\n      <li>F&uuml;r das untere Wort dr&uuml;cken Sie <strong>V</strong></li>\n      </ul>\n      <p><em>Beide Tasten haben jeweils eine Einkerbung, an welcher Sie sich orientieren k&ouml;nnen.</em></p>\n    ",
		"key_press": 32,
		"trial_type": "html-keyboard-response",
		"trial_index": 2,
		"time_elapsed": 109240,
		"internal_node_id": "0.0-2.0"
	},
	{
		"type": "toj",
		"soa": 50,
		"probe_key": "u",
		"reference_key": "v",
		"probe_element": {},
		"reference_element": {},
		"fixation_time": 700,
		"fixation_mark_html": "<img class='toj-fixation-mark absolute-position' src='./images/fixmark.png'></img>",
		"data": {
			"probeLeft": true,
			"salient": true
		},
		"response_key": "v",
		"response": "reference",
		"response_correct": true,
		"measured_soa": 50.49500000313856,
		"rt": 780.5000000007567,
		"probeLeft": true,
		"salient": true,
		"trial_type": "toj",
		"trial_index": 3,
		"time_elapsed": 110782,
		"internal_node_id": "0.0-3.0-0.0"
	},
	{
		"type": "toj",
		"soa": -100,
		"probe_key": "u",
		"reference_key": "v",
		"probe_element": {},
		"reference_element": {},
		"fixation_time": 700,
		"fixation_mark_html": "<img class='toj-fixation-mark absolute-position' src='./images/fixmark.png'></img>",
		"data": {
			"probeLeft": true,
			"salient": false
		},
		"response_key": "u",
		"response": "probe",
		"response_correct": true,
		"measured_soa": -100.46999999758555,
		"rt": 540.354999997362,
		"probeLeft": true,
		"salient": false,
		"trial_type": "toj",
		"trial_index": 4,
		"time_elapsed": 112127,
		"internal_node_id": "0.0-3.0-0.1"
	},
	{
		"type": "toj",
		"soa": -150,
		"probe_key": "v",
		"reference_key": "u",
		"probe_element": {},
		"reference_element": {},
		"fixation_time": 700,
		"fixation_mark_html": "<img class='toj-fixation-mark absolute-position' src='./images/fixmark.png'></img>",
		"data": {
			"probeLeft": false,
			"salient": false
		},
		"response_key": "v",
		"response": "probe",
		"response_correct": true,
		"measured_soa": -151.59000000130618,
		"rt": 538.9849999992293,
		"probeLeft": false,
		"salient": false,
		"trial_type": "toj",
		"trial_index": 5,
		"time_elapsed": 113520,
		"internal_node_id": "0.0-3.0-0.2"
	},
	{
		"type": "toj",
		"soa": 100,
		"probe_key": "u",
		"reference_key": "v",
		"probe_element": {},
		"reference_element": {},
		"fixation_time": 700,
		"fixation_mark_html": "<img class='toj-fixation-mark absolute-position' src='./images/fixmark.png'></img>",
		"data": {
			"probeLeft": true,
			"salient": true
		},
		"response_key": "v",
		"response": "reference",
		"response_correct": true,
		"measured_soa": 101.62000000127591,
		"rt": 455.44499999959953,
		"probeLeft": true,
		"salient": true,
		"trial_type": "toj",
		"trial_index": 6,
		"time_elapsed": 114780,
		"internal_node_id": "0.0-3.0-0.3"
	},
	{
		"type": "toj",
		"soa": -50,
		"probe_key": "v",
		"reference_key": "u",
		"probe_element": {},
		"reference_element": {},
		"fixation_time": 700,
		"fixation_mark_html": "<img class='toj-fixation-mark absolute-position' src='./images/fixmark.png'></img>",
		"data": {
			"probeLeft": false,
			"salient": false
		},
		"response_key": "v",
		"response": "probe",
		"response_correct": true,
		"measured_soa": -51.25499999849126,
		"rt": 619.8149999981979,
		"probeLeft": false,
		"salient": false,
		"trial_type": "toj",
		"trial_index": 7,
		"time_elapsed": 116155,
		"internal_node_id": "0.0-3.0-0.4"
	},
	{
		"type": "toj",
		"soa": 100,
		"probe_key": "u",
		"reference_key": "v",
		"probe_element": {},
		"reference_element": {},
		"fixation_time": 700,
		"fixation_mark_html": "<img class='toj-fixation-mark absolute-position' src='./images/fixmark.png'></img>",
		"data": {
			"probeLeft": true,
			"salient": false
		},
		"response_key": "v",
		"response": "reference",
		"response_correct": true,
		"measured_soa": 101.56999999890104,
		"rt": 348.2700000022305,
		"probeLeft": true,
		"salient": false,
		"trial_type": "toj",
		"trial_index": 8,
		"time_elapsed": 117308,
		"internal_node_id": "0.0-3.0-0.5"
	},
	{
		"type": "toj",
		"soa": 150,
		"probe_key": "u",
		"reference_key": "v",
		"probe_element": {},
		"reference_element": {},
		"fixation_time": 700,
		"fixation_mark_html": "<img class='toj-fixation-mark absolute-position' src='./images/fixmark.png'></img>",
		"data": {
			"probeLeft": true,
			"salient": false
		},
		"response_key": "v",
		"response": "reference",
		"response_correct": true,
		"measured_soa": 151.5300000028219,
		"rt": 374.62000000232365,
		"probeLeft": true,
		"salient": false,
		"trial_type": "toj",
		"trial_index": 9,
		"time_elapsed": 118538,
		"internal_node_id": "0.0-3.0-0.6"
	},
	{
		"type": "toj",
		"soa": 100,
		"probe_key": "v",
		"reference_key": "u",
		"probe_element": {},
		"reference_element": {},
		"fixation_time": 700,
		"fixation_mark_html": "<img class='toj-fixation-mark absolute-position' src='./images/fixmark.png'></img>",
		"data": {
			"probeLeft": false,
			"salient": false
		},
		"response_key": "u",
		"response": "reference",
		"response_correct": true,
		"measured_soa": 101.47000000142725,
		"rt": 469.1300000049523,
		"probeLeft": false,
		"salient": false,
		"trial_type": "toj",
		"trial_index": 10,
		"time_elapsed": 119812,
		"internal_node_id": "0.0-3.0-0.7"
	},
	{
		"type": "toj",
		"soa": 0,
		"probe_key": "u",
		"reference_key": "v",
		"probe_element": {},
		"reference_element": {},
		"fixation_time": 700,
		"fixation_mark_html": "<img class='toj-fixation-mark absolute-position' src='./images/fixmark.png'></img>",
		"data": {
			"probeLeft": true,
			"salient": false
		},
		"response_key": "v",
		"response": "reference",
		"response_correct": true,
		"measured_soa": 0.13000000035390258,
		"rt": 549.1600000023027,
		"probeLeft": true,
		"salient": false,
		"trial_type": "toj",
		"trial_index": 11,
		"time_elapsed": 121065,
		"internal_node_id": "0.0-3.0-0.8"
	},
	{
		"type": "toj",
		"soa": 0,
		"probe_key": "v",
		"reference_key": "u",
		"probe_element": {},
		"reference_element": {},
		"fixation_time": 700,
		"fixation_mark_html": "<img class='toj-fixation-mark absolute-position' src='./images/fixmark.png'></img>",
		"data": {
			"probeLeft": false,
			"salient": false
		},
		"response_key": "u",
		"response": "reference",
		"response_correct": true,
		"measured_soa": 0.06500000017695129,
		"rt": 521.5399999942747,
		"probeLeft": false,
		"salient": false,
		"trial_type": "toj",
		"trial_index": 12,
		"time_elapsed": 122290,
		"internal_node_id": "0.0-3.0-0.9"
	},
	{
		"rt": 785,
		"stimulus": "<p>You finished the tutorial.</p><p>Press any key to continue.</p>",
		"key_press": 32,
		"trial_type": "html-keyboard-response",
		"trial_index": 13,
		"time_elapsed": 123075,
		"internal_node_id": "0.0-4.0"
	},
	{
		"type": "toj",
		"soa": 50,
		"probe_key": "v",
		"reference_key": "u",
		"probe_element": {},
		"reference_element": {},
		"fixation_time": 700,
		"fixation_mark_html": "<img class='toj-fixation-mark absolute-position' src='./images/fixmark.png'></img>",
		"data": {
			"probeLeft": false,
			"salient": false
		},
		"response_key": "u",
		"response": "reference",
		"response_correct": true,
		"measured_soa": 50.435000004654285,
		"rt": 464.4049999988056,
		"probeLeft": false,
		"salient": false,
		"trial_type": "toj",
		"trial_index": 14,
		"time_elapsed": 124293,
		"internal_node_id": "0.0-5.0-0.0-0.0"
	},
	{
		"type": "toj",
		"soa": 50,
		"probe_key": "v",
		"reference_key": "u",
		"probe_element": {},
		"reference_element": {},
		"fixation_time": 700,
		"fixation_mark_html": "<img class='toj-fixation-mark absolute-position' src='./images/fixmark.png'></img>",
		"data": {
			"probeLeft": false,
			"salient": true
		},
		"response_key": "u",
		"response": "reference",
		"response_correct": true,
		"measured_soa": 50.974999998288695,
		"rt": 480.7950000031269,
		"probeLeft": false,
		"salient": true,
		"trial_type": "toj",
		"trial_index": 15,
		"time_elapsed": 125529,
		"internal_node_id": "0.0-5.0-0.0-0.1"
	},
	{
		"type": "toj",
		"soa": -100,
		"probe_key": "u",
		"reference_key": "v",
		"probe_element": {},
		"reference_element": {},
		"fixation_time": 700,
		"fixation_mark_html": "<img class='toj-fixation-mark absolute-position' src='./images/fixmark.png'></img>",
		"data": {
			"probeLeft": true,
			"salient": false
		},
		"response_key": "u",
		"response": "probe",
		"response_correct": true,
		"measured_soa": -101.63499999907799,
		"rt": 488.7700000035693,
		"probeLeft": true,
		"salient": false,
		"trial_type": "toj",
		"trial_index": 16,
		"time_elapsed": 126824,
		"internal_node_id": "0.0-5.0-0.0-0.2"
	},
	{
		"type": "toj",
		"soa": -150,
		"probe_key": "u",
		"reference_key": "v",
		"probe_element": {},
		"reference_element": {},
		"fixation_time": 700,
		"fixation_mark_html": "<img class='toj-fixation-mark absolute-position' src='./images/fixmark.png'></img>",
		"data": {
			"probeLeft": true,
			"salient": true
		},
		"response_key": "u",
		"response": "probe",
		"response_correct": true,
		"measured_soa": -151.59500000299886,
		"rt": 501.2249999999767,
		"probeLeft": true,
		"salient": true,
		"trial_type": "toj",
		"trial_index": 17,
		"time_elapsed": 128181,
		"internal_node_id": "0.0-5.0-0.0-0.3"
	},
	{
		"type": "toj",
		"soa": -150,
		"probe_key": "u",
		"reference_key": "v",
		"probe_element": {},
		"reference_element": {},
		"fixation_time": 700,
		"fixation_mark_html": "<img class='toj-fixation-mark absolute-position' src='./images/fixmark.png'></img>",
		"data": {
			"probeLeft": true,
			"salient": false
		},
		"response_key": "u",
		"response": "probe",
		"response_correct": true,
		"measured_soa": -151.52500000112923,
		"rt": 399.874999995518,
		"probeLeft": true,
		"salient": false,
		"trial_type": "toj",
		"trial_index": 18,
		"time_elapsed": 129436,
		"internal_node_id": "0.0-5.0-0.0-0.4"
	},
	{
		"type": "toj",
		"soa": -50,
		"probe_key": "u",
		"reference_key": "v",
		"probe_element": {},
		"reference_element": {},
		"fixation_time": 700,
		"fixation_mark_html": "<img class='toj-fixation-mark absolute-position' src='./images/fixmark.png'></img>",
		"data": {
			"probeLeft": true,
			"salient": true
		},
		"response_key": "v",
		"response": "reference",
		"response_correct": false,
		"measured_soa": -51.569999995990656,
		"rt": 589.0199999994365,
		"probeLeft": true,
		"salient": true,
		"trial_type": "toj",
		"trial_index": 19,
		"time_elapsed": 130780,
		"internal_node_id": "0.0-5.0-0.0-0.5"
	},
	{
		"type": "toj",
		"soa": -50,
		"probe_key": "v",
		"reference_key": "u",
		"probe_element": {},
		"reference_element": {},
		"fixation_time": 700,
		"fixation_mark_html": "<img class='toj-fixation-mark absolute-position' src='./images/fixmark.png'></img>",
		"data": {
			"probeLeft": false,
			"salient": true
		},
		"response_key": "v",
		"response": "probe",
		"response_correct": true,
		"measured_soa": -51.07500000303844,
		"rt": 552.2199999977602,
		"probeLeft": false,
		"salient": true,
		"trial_type": "toj",
		"trial_index": 20,
		"time_elapsed": 132087,
		"internal_node_id": "0.0-5.0-0.0-0.6"
	},
	{
		"type": "toj",
		"soa": 50,
		"probe_key": "u",
		"reference_key": "v",
		"probe_element": {},
		"reference_element": {},
		"fixation_time": 700,
		"fixation_mark_html": "<img class='toj-fixation-mark absolute-position' src='./images/fixmark.png'></img>",
		"data": {
			"probeLeft": true,
			"salient": true
		},
		"response_key": "v",
		"response": "reference",
		"response_correct": true,
		"measured_soa": 51.60999999498017,
		"rt": 561.4049999931012,
		"probeLeft": true,
		"salient": true,
		"trial_type": "toj",
		"trial_index": 21,
		"time_elapsed": 133403,
		"internal_node_id": "0.0-5.0-0.0-0.7"
	},
	{
		"type": "toj",
		"soa": -50,
		"probe_key": "u",
		"reference_key": "v",
		"probe_element": {},
		"reference_element": {},
		"fixation_time": 700,
		"fixation_mark_html": "<img class='toj-fixation-mark absolute-position' src='./images/fixmark.png'></img>",
		"data": {
			"probeLeft": true,
			"salient": false
		},
		"response_key": "v",
		"response": "reference",
		"response_correct": false,
		"measured_soa": -51.53499999869382,
		"rt": 732.3850000029779,
		"probeLeft": true,
		"salient": false,
		"trial_type": "toj",
		"trial_index": 22,
		"time_elapsed": 134890,
		"internal_node_id": "0.0-5.0-0.0-0.8"
	},
	{
		"type": "toj",
		"soa": 150,
		"probe_key": "u",
		"reference_key": "v",
		"probe_element": {},
		"reference_element": {},
		"fixation_time": 700,
		"fixation_mark_html": "<img class='toj-fixation-mark absolute-position' src='./images/fixmark.png'></img>",
		"data": {
			"probeLeft": true,
			"salient": false
		},
		"response_key": "v",
		"response": "reference",
		"response_correct": true,
		"measured_soa": 151.57499999622814,
		"rt": 441.8100000038976,
		"probeLeft": true,
		"salient": false,
		"trial_type": "toj",
		"trial_index": 23,
		"time_elapsed": 136188,
		"internal_node_id": "0.0-5.0-0.0-0.9"
	},
	{
		"type": "toj",
		"soa": -100,
		"probe_key": "u",
		"reference_key": "v",
		"probe_element": {},
		"reference_element": {},
		"fixation_time": 700,
		"fixation_mark_html": "<img class='toj-fixation-mark absolute-position' src='./images/fixmark.png'></img>",
		"data": {
			"probeLeft": true,
			"salient": true
		},
		"response_key": "u",
		"response": "probe",
		"response_correct": true,
		"measured_soa": -101.55500000109896,
		"rt": 455.12500000040745,
		"probeLeft": true,
		"salient": true,
		"trial_type": "toj",
		"trial_index": 24,
		"time_elapsed": 137448,
		"internal_node_id": "0.0-5.0-0.0-0.10"
	},
	{
		"type": "toj",
		"soa": -100,
		"probe_key": "v",
		"reference_key": "u",
		"probe_element": {},
		"reference_element": {},
		"fixation_time": 700,
		"fixation_mark_html": "<img class='toj-fixation-mark absolute-position' src='./images/fixmark.png'></img>",
		"data": {
			"probeLeft": false,
			"salient": false
		},
		"response_key": "v",
		"response": "probe",
		"response_correct": true,
		"measured_soa": -100.44000000198139,
		"rt": 442.3899999965215,
		"probeLeft": false,
		"salient": false,
		"trial_type": "toj",
		"trial_index": 25,
		"time_elapsed": 138694,
		"internal_node_id": "0.0-5.0-0.0-0.11"
	},
	{
		"type": "toj",
		"soa": 100,
		"probe_key": "v",
		"reference_key": "u",
		"probe_element": {},
		"reference_element": {},
		"fixation_time": 700,
		"fixation_mark_html": "<img class='toj-fixation-mark absolute-position' src='./images/fixmark.png'></img>",
		"data": {
			"probeLeft": false,
			"salient": false
		},
		"response_key": "u",
		"response": "reference",
		"response_correct": true,
		"measured_soa": 101.48500000650529,
		"rt": 444.4549999971059,
		"probeLeft": false,
		"salient": false,
		"trial_type": "toj",
		"trial_index": 26,
		"time_elapsed": 139943,
		"internal_node_id": "0.0-5.0-0.0-0.12"
	},
	{
		"type": "toj",
		"soa": -150,
		"probe_key": "v",
		"reference_key": "u",
		"probe_element": {},
		"reference_element": {},
		"fixation_time": 700,
		"fixation_mark_html": "<img class='toj-fixation-mark absolute-position' src='./images/fixmark.png'></img>",
		"data": {
			"probeLeft": false,
			"salient": true
		},
		"response_key": "v",
		"response": "probe",
		"response_correct": true,
		"measured_soa": -151.58999999403022,
		"rt": 302.5549999947543,
		"probeLeft": false,
		"salient": true,
		"trial_type": "toj",
		"trial_index": 27,
		"time_elapsed": 141103,
		"internal_node_id": "0.0-5.0-0.0-0.13"
	},
	{
		"type": "toj",
		"soa": -50,
		"probe_key": "v",
		"reference_key": "u",
		"probe_element": {},
		"reference_element": {},
		"fixation_time": 700,
		"fixation_mark_html": "<img class='toj-fixation-mark absolute-position' src='./images/fixmark.png'></img>",
		"data": {
			"probeLeft": false,
			"salient": false
		},
		"response_key": "u",
		"response": "reference",
		"response_correct": false,
		"measured_soa": -51.47500000020955,
		"rt": 705.2350000012666,
		"probeLeft": false,
		"salient": false,
		"trial_type": "toj",
		"trial_index": 28,
		"time_elapsed": 142564,
		"internal_node_id": "0.0-5.0-0.0-0.14"
	},
	{
		"type": "toj",
		"soa": 0,
		"probe_key": "u",
		"reference_key": "v",
		"probe_element": {},
		"reference_element": {},
		"fixation_time": 700,
		"fixation_mark_html": "<img class='toj-fixation-mark absolute-position' src='./images/fixmark.png'></img>",
		"data": {
			"probeLeft": true,
			"salient": false
		},
		"response_key": "u",
		"response": "probe",
		"response_correct": true,
		"measured_soa": 0.07999999797903001,
		"rt": 784.0500000020256,
		"probeLeft": true,
		"salient": false,
		"trial_type": "toj",
		"trial_index": 29,
		"time_elapsed": 144051,
		"internal_node_id": "0.0-5.0-0.0-0.15"
	},
	{
		"type": "toj",
		"soa": 0,
		"probe_key": "u",
		"reference_key": "v",
		"probe_element": {},
		"reference_element": {},
		"fixation_time": 700,
		"fixation_mark_html": "<img class='toj-fixation-mark absolute-position' src='./images/fixmark.png'></img>",
		"data": {
			"probeLeft": true,
			"salient": true
		},
		"response_key": "u",
		"response": "probe",
		"response_correct": true,
		"measured_soa": 0.09500000305706635,
		"rt": 631.7950000011479,
		"probeLeft": true,
		"salient": true,
		"trial_type": "toj",
		"trial_index": 30,
		"time_elapsed": 145387,
		"internal_node_id": "0.0-5.0-0.0-0.16"
	},
	{
		"type": "toj",
		"soa": 50,
		"probe_key": "u",
		"reference_key": "v",
		"probe_element": {},
		"reference_element": {},
		"fixation_time": 700,
		"fixation_mark_html": "<img class='toj-fixation-mark absolute-position' src='./images/fixmark.png'></img>",
		"data": {
			"probeLeft": true,
			"salient": false
		},
		"response_key": "v",
		"response": "reference",
		"response_correct": true,
		"measured_soa": 51.5400000003865,
		"rt": 487.0450000016717,
		"probeLeft": true,
		"salient": false,
		"trial_type": "toj",
		"trial_index": 31,
		"time_elapsed": 146629,
		"internal_node_id": "0.0-5.0-0.0-0.17"
	},
	{
		"type": "toj",
		"soa": 100,
		"probe_key": "u",
		"reference_key": "v",
		"probe_element": {},
		"reference_element": {},
		"fixation_time": 700,
		"fixation_mark_html": "<img class='toj-fixation-mark absolute-position' src='./images/fixmark.png'></img>",
		"data": {
			"probeLeft": true,
			"salient": false
		},
		"response_key": "v",
		"response": "reference",
		"response_correct": true,
		"measured_soa": 101.56500000448432,
		"rt": 515.2649999945424,
		"probeLeft": true,
		"salient": false,
		"trial_type": "toj",
		"trial_index": 32,
		"time_elapsed": 147949,
		"internal_node_id": "0.0-5.0-0.0-0.18"
	},
	{
		"type": "toj",
		"soa": 150,
		"probe_key": "v",
		"reference_key": "u",
		"probe_element": {},
		"reference_element": {},
		"fixation_time": 700,
		"fixation_mark_html": "<img class='toj-fixation-mark absolute-position' src='./images/fixmark.png'></img>",
		"data": {
			"probeLeft": false,
			"salient": false
		},
		"response_key": "u",
		"response": "reference",
		"response_correct": true,
		"measured_soa": 151.49500000552507,
		"rt": 322.52499999594875,
		"probeLeft": false,
		"salient": false,
		"trial_type": "toj",
		"trial_index": 33,
		"time_elapsed": 149126,
		"internal_node_id": "0.0-5.0-0.0-0.19"
	},
	{
		"type": "toj",
		"soa": 0,
		"probe_key": "v",
		"reference_key": "u",
		"probe_element": {},
		"reference_element": {},
		"fixation_time": 700,
		"fixation_mark_html": "<img class='toj-fixation-mark absolute-position' src='./images/fixmark.png'></img>",
		"data": {
			"probeLeft": false,
			"salient": true
		},
		"response_key": "u",
		"response": "reference",
		"response_correct": true,
		"measured_soa": 0.05999999848427251,
		"rt": 628.0049999986659,
		"probeLeft": false,
		"salient": true,
		"trial_type": "toj",
		"trial_index": 34,
		"time_elapsed": 150457,
		"internal_node_id": "0.0-5.0-0.0-0.20"
	},
	{
		"type": "toj",
		"soa": 100,
		"probe_key": "v",
		"reference_key": "u",
		"probe_element": {},
		"reference_element": {},
		"fixation_time": 700,
		"fixation_mark_html": "<img class='toj-fixation-mark absolute-position' src='./images/fixmark.png'></img>",
		"data": {
			"probeLeft": false,
			"salient": true
		},
		"response_key": "u",
		"response": "reference",
		"response_correct": true,
		"measured_soa": 100.55500000453321,
		"rt": 372.2550000020419,
		"probeLeft": false,
		"salient": true,
		"trial_type": "toj",
		"trial_index": 35,
		"time_elapsed": 151633,
		"internal_node_id": "0.0-5.0-0.0-0.21"
	},
	{
		"type": "toj",
		"soa": 0,
		"probe_key": "v",
		"reference_key": "u",
		"probe_element": {},
		"reference_element": {},
		"fixation_time": 700,
		"fixation_mark_html": "<img class='toj-fixation-mark absolute-position' src='./images/fixmark.png'></img>",
		"data": {
			"probeLeft": false,
			"salient": false
		},
		"response_key": "u",
		"response": "reference",
		"response_correct": true,
		"measured_soa": 0.055000004067551345,
		"rt": 1700.7249999951455,
		"probeLeft": false,
		"salient": false,
		"trial_type": "toj",
		"trial_index": 36,
		"time_elapsed": 154037,
		"internal_node_id": "0.0-5.0-0.0-0.22"
	},
	{
		"type": "toj",
		"soa": 100,
		"probe_key": "u",
		"reference_key": "v",
		"probe_element": {},
		"reference_element": {},
		"fixation_time": 700,
		"fixation_mark_html": "<img class='toj-fixation-mark absolute-position' src='./images/fixmark.png'></img>",
		"data": {
			"probeLeft": true,
			"salient": true
		},
		"response_key": "v",
		"response": "reference",
		"response_correct": true,
		"measured_soa": 101.46499999973457,
		"rt": 330.96500000101514,
		"probeLeft": true,
		"salient": true,
		"trial_type": "toj",
		"trial_index": 37,
		"time_elapsed": 155173,
		"internal_node_id": "0.0-5.0-0.0-0.23"
	},
	{
		"type": "toj",
		"soa": -150,
		"probe_key": "v",
		"reference_key": "u",
		"probe_element": {},
		"reference_element": {},
		"fixation_time": 700,
		"fixation_mark_html": "<img class='toj-fixation-mark absolute-position' src='./images/fixmark.png'></img>",
		"data": {
			"probeLeft": false,
			"salient": false
		},
		"response_key": "v",
		"response": "probe",
		"response_correct": true,
		"measured_soa": -151.5849999996135,
		"rt": 384.37499999417923,
		"probeLeft": false,
		"salient": false,
		"trial_type": "toj",
		"trial_index": 38,
		"time_elapsed": 156413,
		"internal_node_id": "0.0-5.0-0.0-0.24"
	},
	{
		"type": "toj",
		"soa": 150,
		"probe_key": "v",
		"reference_key": "u",
		"probe_element": {},
		"reference_element": {},
		"fixation_time": 700,
		"fixation_mark_html": "<img class='toj-fixation-mark absolute-position' src='./images/fixmark.png'></img>",
		"data": {
			"probeLeft": false,
			"salient": true
		},
		"response_key": "u",
		"response": "reference",
		"response_correct": true,
		"measured_soa": 150.77000000019325,
		"rt": 345.9099999963655,
		"probeLeft": false,
		"salient": true,
		"trial_type": "toj",
		"trial_index": 39,
		"time_elapsed": 157613,
		"internal_node_id": "0.0-5.0-0.0-0.25"
	},
	{
		"type": "toj",
		"soa": -100,
		"probe_key": "v",
		"reference_key": "u",
		"probe_element": {},
		"reference_element": {},
		"fixation_time": 700,
		"fixation_mark_html": "<img class='toj-fixation-mark absolute-position' src='./images/fixmark.png'></img>",
		"data": {
			"probeLeft": false,
			"salient": true
		},
		"response_key": "v",
		"response": "probe",
		"response_correct": true,
		"measured_soa": -101.56499999720836,
		"rt": 464.1600000031758,
		"probeLeft": false,
		"salient": true,
		"trial_type": "toj",
		"trial_index": 40,
		"time_elapsed": 158882,
		"internal_node_id": "0.0-5.0-0.0-0.26"
	},
	{
		"type": "toj",
		"soa": 150,
		"probe_key": "u",
		"reference_key": "v",
		"probe_element": {},
		"reference_element": {},
		"fixation_time": 700,
		"fixation_mark_html": "<img class='toj-fixation-mark absolute-position' src='./images/fixmark.png'></img>",
		"data": {
			"probeLeft": true,
			"salient": true
		},
		"response_key": "v",
		"response": "reference",
		"response_correct": true,
		"measured_soa": 151.47499999875436,
		"rt": 358.1350000022212,
		"probeLeft": true,
		"salient": true,
		"trial_type": "toj",
		"trial_index": 41,
		"time_elapsed": 160095,
		"internal_node_id": "0.0-5.0-0.0-0.27"
	},
	{
		"rt": 1014,
		"stimulus": "<p>You finished block 1 of 5.<p/><p>Press any key to continue.</p>",
		"key_press": 32,
		"trial_type": "html-keyboard-response",
		"trial_index": 42,
		"time_elapsed": 161110,
		"internal_node_id": "0.0-5.0-1.0"
	},
	{
		"type": "toj",
		"soa": -100,
		"probe_key": "u",
		"reference_key": "v",
		"probe_element": {},
		"reference_element": {},
		"fixation_time": 700,
		"fixation_mark_html": "<img class='toj-fixation-mark absolute-position' src='./images/fixmark.png'></img>",
		"data": {
			"probeLeft": true,
			"salient": false
		},
		"response_key": "u",
		"response": "probe",
		"response_correct": true,
		"measured_soa": -101.2750000008964,
		"rt": 475.3899999996065,
		"probeLeft": true,
		"salient": false,
		"trial_type": "toj",
		"trial_index": 43,
		"time_elapsed": 162390,
		"internal_node_id": "0.0-5.0-0.1-0.28"
	},
	{
		"type": "toj",
		"soa": 50,
		"probe_key": "v",
		"reference_key": "u",
		"probe_element": {},
		"reference_element": {},
		"fixation_time": 700,
		"fixation_mark_html": "<img class='toj-fixation-mark absolute-position' src='./images/fixmark.png'></img>",
		"data": {
			"probeLeft": false,
			"salient": true
		},
		"response_key": "u",
		"response": "reference",
		"response_correct": true,
		"measured_soa": 51.419999996141996,
		"rt": 347.2399999955087,
		"probeLeft": false,
		"salient": true,
		"trial_type": "toj",
		"trial_index": 44,
		"time_elapsed": 163492,
		"internal_node_id": "0.0-5.0-0.1-0.29"
	},
	{
		"type": "toj",
		"soa": 50,
		"probe_key": "u",
		"reference_key": "v",
		"probe_element": {},
		"reference_element": {},
		"fixation_time": 700,
		"fixation_mark_html": "<img class='toj-fixation-mark absolute-position' src='./images/fixmark.png'></img>",
		"data": {
			"probeLeft": true,
			"salient": true
		},
		"response_key": "v",
		"response": "reference",
		"response_correct": true,
		"measured_soa": 51.5400000003865,
		"rt": 636.2299999964307,
		"probeLeft": true,
		"salient": true,
		"trial_type": "toj",
		"trial_index": 45,
		"time_elapsed": 164883,
		"internal_node_id": "0.0-5.0-0.1-0.30"
	},
	{
		"type": "toj",
		"soa": 0,
		"probe_key": "v",
		"reference_key": "u",
		"probe_element": {},
		"reference_element": {},
		"fixation_time": 700,
		"fixation_mark_html": "<img class='toj-fixation-mark absolute-position' src='./images/fixmark.png'></img>",
		"data": {
			"probeLeft": false,
			"salient": true
		},
		"response_key": "u",
		"response": "reference",
		"response_correct": true,
		"measured_soa": 0.11999999696854502,
		"rt": 869.780000000901,
		"probeLeft": false,
		"salient": true,
		"trial_type": "toj",
		"trial_index": 46,
		"time_elapsed": 166457,
		"internal_node_id": "0.0-5.0-0.1-0.31"
	},
	{
		"type": "toj",
		"soa": -50,
		"probe_key": "v",
		"reference_key": "u",
		"probe_element": {},
		"reference_element": {},
		"fixation_time": 700,
		"fixation_mark_html": "<img class='toj-fixation-mark absolute-position' src='./images/fixmark.png'></img>",
		"data": {
			"probeLeft": false,
			"salient": true
		},
		"response_key": "v",
		"response": "probe",
		"response_correct": true,
		"measured_soa": -51.59999999887077,
		"rt": 373.0799999975716,
		"probeLeft": false,
		"salient": true,
		"trial_type": "toj",
		"trial_index": 47,
		"time_elapsed": 167585,
		"internal_node_id": "0.0-5.0-0.1-0.32"
	},
	{
		"type": "toj",
		"soa": 0,
		"probe_key": "u",
		"reference_key": "v",
		"probe_element": {},
		"reference_element": {},
		"fixation_time": 700,
		"fixation_mark_html": "<img class='toj-fixation-mark absolute-position' src='./images/fixmark.png'></img>",
		"data": {
			"probeLeft": true,
			"salient": true
		},
		"response_key": "u",
		"response": "probe",
		"response_correct": true,
		"measured_soa": 0.06500000017695129,
		"rt": 521.614999997837,
		"probeLeft": true,
		"salient": true,
		"trial_type": "toj",
		"trial_index": 48,
		"time_elapsed": 168810,
		"internal_node_id": "0.0-5.0-0.1-0.33"
	},
	{
		"type": "toj",
		"soa": 150,
		"probe_key": "v",
		"reference_key": "u",
		"probe_element": {},
		"reference_element": {},
		"fixation_time": 700,
		"fixation_mark_html": "<img class='toj-fixation-mark absolute-position' src='./images/fixmark.png'></img>",
		"data": {
			"probeLeft": false,
			"salient": false
		},
		"response_key": "u",
		"response": "reference",
		"response_correct": true,
		"measured_soa": 151.4549999992596,
		"rt": 237.2350000005099,
		"probeLeft": false,
		"salient": false,
		"trial_type": "toj",
		"trial_index": 49,
		"time_elapsed": 169902,
		"internal_node_id": "0.0-5.0-0.1-0.34"
	},
	{
		"type": "toj",
		"soa": -100,
		"probe_key": "v",
		"reference_key": "u",
		"probe_element": {},
		"reference_element": {},
		"fixation_time": 700,
		"fixation_mark_html": "<img class='toj-fixation-mark absolute-position' src='./images/fixmark.png'></img>",
		"data": {
			"probeLeft": false,
			"salient": true
		},
		"response_key": "v",
		"response": "probe",
		"response_correct": true,
		"measured_soa": -101.47000000142725,
		"rt": 304.60999999922933,
		"probeLeft": false,
		"salient": true,
		"trial_type": "toj",
		"trial_index": 50,
		"time_elapsed": 171011,
		"internal_node_id": "0.0-5.0-0.1-0.35"
	},
	{
		"type": "toj",
		"soa": -100,
		"probe_key": "v",
		"reference_key": "u",
		"probe_element": {},
		"reference_element": {},
		"fixation_time": 700,
		"fixation_mark_html": "<img class='toj-fixation-mark absolute-position' src='./images/fixmark.png'></img>",
		"data": {
			"probeLeft": false,
			"salient": false
		},
		"response_key": "v",
		"response": "probe",
		"response_correct": true,
		"measured_soa": -101.47000000142725,
		"rt": 310.4250000033062,
		"probeLeft": false,
		"salient": false,
		"trial_type": "toj",
		"trial_index": 51,
		"time_elapsed": 172125,
		"internal_node_id": "0.0-5.0-0.1-0.36"
	},
	{
		"type": "toj",
		"soa": -150,
		"probe_key": "u",
		"reference_key": "v",
		"probe_element": {},
		"reference_element": {},
		"fixation_time": 700,
		"fixation_mark_html": "<img class='toj-fixation-mark absolute-position' src='./images/fixmark.png'></img>",
		"data": {
			"probeLeft": true,
			"salient": true
		},
		"response_key": "u",
		"response": "probe",
		"response_correct": true,
		"measured_soa": -151.08999999938533,
		"rt": 260.100000006787,
		"probeLeft": true,
		"salient": true,
		"trial_type": "toj",
		"trial_index": 52,
		"time_elapsed": 173239,
		"internal_node_id": "0.0-5.0-0.1-0.37"
	},
	{
		"type": "toj",
		"soa": -150,
		"probe_key": "v",
		"reference_key": "u",
		"probe_element": {},
		"reference_element": {},
		"fixation_time": 700,
		"fixation_mark_html": "<img class='toj-fixation-mark absolute-position' src='./images/fixmark.png'></img>",
		"data": {
			"probeLeft": false,
			"salient": true
		},
		"response_key": "v",
		"response": "probe",
		"response_correct": true,
		"measured_soa": -151.55000000231666,
		"rt": 418.0899999992107,
		"probeLeft": false,
		"salient": true,
		"trial_type": "toj",
		"trial_index": 53,
		"time_elapsed": 174512,
		"internal_node_id": "0.0-5.0-0.1-0.38"
	},
	{
		"type": "toj",
		"soa": 100,
		"probe_key": "u",
		"reference_key": "v",
		"probe_element": {},
		"reference_element": {},
		"fixation_time": 700,
		"fixation_mark_html": "<img class='toj-fixation-mark absolute-position' src='./images/fixmark.png'></img>",
		"data": {
			"probeLeft": true,
			"salient": true
		},
		"response_key": "v",
		"response": "reference",
		"response_correct": true,
		"measured_soa": 100.8049999945797,
		"rt": 310.01999999716645,
		"probeLeft": true,
		"salient": true,
		"trial_type": "toj",
		"trial_index": 54,
		"time_elapsed": 175626,
		"internal_node_id": "0.0-5.0-0.1-0.39"
	},
	{
		"type": "toj",
		"soa": 0,
		"probe_key": "u",
		"reference_key": "v",
		"probe_element": {},
		"reference_element": {},
		"fixation_time": 700,
		"fixation_mark_html": "<img class='toj-fixation-mark absolute-position' src='./images/fixmark.png'></img>",
		"data": {
			"probeLeft": true,
			"salient": false
		},
		"response_key": "u",
		"response": "probe",
		"response_correct": true,
		"measured_soa": 0.1649999976507388,
		"rt": 573.4950000041863,
		"probeLeft": true,
		"salient": false,
		"trial_type": "toj",
		"trial_index": 55,
		"time_elapsed": 176903,
		"internal_node_id": "0.0-5.0-0.1-0.40"
	},
	{
		"type": "toj",
		"soa": 0,
		"probe_key": "v",
		"reference_key": "u",
		"probe_element": {},
		"reference_element": {},
		"fixation_time": 700,
		"fixation_mark_html": "<img class='toj-fixation-mark absolute-position' src='./images/fixmark.png'></img>",
		"data": {
			"probeLeft": false,
			"salient": false
		},
		"response_key": "u",
		"response": "reference",
		"response_correct": true,
		"measured_soa": 0.09000000136438757,
		"rt": 462.4949999997625,
		"probeLeft": false,
		"salient": false,
		"trial_type": "toj",
		"trial_index": 56,
		"time_elapsed": 178069,
		"internal_node_id": "0.0-5.0-0.1-0.41"
	},
	{
		"type": "toj",
		"soa": 150,
		"probe_key": "v",
		"reference_key": "u",
		"probe_element": {},
		"reference_element": {},
		"fixation_time": 700,
		"fixation_mark_html": "<img class='toj-fixation-mark absolute-position' src='./images/fixmark.png'></img>",
		"data": {
			"probeLeft": false,
			"salient": true
		},
		"response_key": "u",
		"response": "reference",
		"response_correct": true,
		"measured_soa": 151.56500000011874,
		"rt": 289.1700000036508,
		"probeLeft": false,
		"salient": true,
		"trial_type": "toj",
		"trial_index": 57,
		"time_elapsed": 179213,
		"internal_node_id": "0.0-5.0-0.1-0.42"
	},
	{
		"type": "toj",
		"soa": 50,
		"probe_key": "u",
		"reference_key": "v",
		"probe_element": {},
		"reference_element": {},
		"fixation_time": 700,
		"fixation_mark_html": "<img class='toj-fixation-mark absolute-position' src='./images/fixmark.png'></img>",
		"data": {
			"probeLeft": true,
			"salient": false
		},
		"response_key": "v",
		"response": "reference",
		"response_correct": true,
		"measured_soa": 50.64500000298722,
		"rt": 384.8199999993085,
		"probeLeft": true,
		"salient": false,
		"trial_type": "toj",
		"trial_index": 58,
		"time_elapsed": 180351,
		"internal_node_id": "0.0-5.0-0.1-0.43"
	},
	{
		"type": "toj",
		"soa": -50,
		"probe_key": "u",
		"reference_key": "v",
		"probe_element": {},
		"reference_element": {},
		"fixation_time": 700,
		"fixation_mark_html": "<img class='toj-fixation-mark absolute-position' src='./images/fixmark.png'></img>",
		"data": {
			"probeLeft": true,
			"salient": false
		},
		"response_key": "u",
		"response": "probe",
		"response_correct": true,
		"measured_soa": -50.60999999841442,
		"rt": 307.9749999960768,
		"probeLeft": true,
		"salient": false,
		"trial_type": "toj",
		"trial_index": 59,
		"time_elapsed": 181413,
		"internal_node_id": "0.0-5.0-0.1-0.44"
	},
	{
		"type": "toj",
		"soa": 100,
		"probe_key": "v",
		"reference_key": "u",
		"probe_element": {},
		"reference_element": {},
		"fixation_time": 700,
		"fixation_mark_html": "<img class='toj-fixation-mark absolute-position' src='./images/fixmark.png'></img>",
		"data": {
			"probeLeft": false,
			"salient": true
		},
		"response_key": "u",
		"response": "reference",
		"response_correct": true,
		"measured_soa": 101.56999999890104,
		"rt": 359.61999999562977,
		"probeLeft": false,
		"salient": true,
		"trial_type": "toj",
		"trial_index": 60,
		"time_elapsed": 182579,
		"internal_node_id": "0.0-5.0-0.1-0.45"
	},
	{
		"type": "toj",
		"soa": -50,
		"probe_key": "v",
		"reference_key": "u",
		"probe_element": {},
		"reference_element": {},
		"fixation_time": 700,
		"fixation_mark_html": "<img class='toj-fixation-mark absolute-position' src='./images/fixmark.png'></img>",
		"data": {
			"probeLeft": false,
			"salient": false
		},
		"response_key": "u",
		"response": "reference",
		"response_correct": false,
		"measured_soa": -51.09000000084052,
		"rt": 633.1850000060513,
		"probeLeft": false,
		"salient": false,
		"trial_type": "toj",
		"trial_index": 61,
		"time_elapsed": 183965,
		"internal_node_id": "0.0-5.0-0.1-0.46"
	},
	{
		"type": "toj",
		"soa": -150,
		"probe_key": "u",
		"reference_key": "v",
		"probe_element": {},
		"reference_element": {},
		"fixation_time": 700,
		"fixation_mark_html": "<img class='toj-fixation-mark absolute-position' src='./images/fixmark.png'></img>",
		"data": {
			"probeLeft": true,
			"salient": false
		},
		"response_key": "u",
		"response": "probe",
		"response_correct": true,
		"measured_soa": -151.04499999870313,
		"rt": 299.6199999979581,
		"probeLeft": true,
		"salient": false,
		"trial_type": "toj",
		"trial_index": 62,
		"time_elapsed": 185119,
		"internal_node_id": "0.0-5.0-0.1-0.47"
	},
	{
		"type": "toj",
		"soa": -100,
		"probe_key": "u",
		"reference_key": "v",
		"probe_element": {},
		"reference_element": {},
		"fixation_time": 700,
		"fixation_mark_html": "<img class='toj-fixation-mark absolute-position' src='./images/fixmark.png'></img>",
		"data": {
			"probeLeft": true,
			"salient": true
		},
		"response_key": "u",
		"response": "probe",
		"response_correct": true,
		"measured_soa": -101.54999999940628,
		"rt": 341.26500000274973,
		"probeLeft": true,
		"salient": true,
		"trial_type": "toj",
		"trial_index": 63,
		"time_elapsed": 186265,
		"internal_node_id": "0.0-5.0-0.1-0.48"
	},
	{
		"type": "toj",
		"soa": 150,
		"probe_key": "u",
		"reference_key": "v",
		"probe_element": {},
		"reference_element": {},
		"fixation_time": 700,
		"fixation_mark_html": "<img class='toj-fixation-mark absolute-position' src='./images/fixmark.png'></img>",
		"data": {
			"probeLeft": true,
			"salient": true
		},
		"response_key": "v",
		"response": "reference",
		"response_correct": true,
		"measured_soa": 151.5499999950407,
		"rt": 259.9999999947613,
		"probeLeft": true,
		"salient": true,
		"trial_type": "toj",
		"trial_index": 64,
		"time_elapsed": 187380,
		"internal_node_id": "0.0-5.0-0.1-0.49"
	},
	{
		"type": "toj",
		"soa": 100,
		"probe_key": "v",
		"reference_key": "u",
		"probe_element": {},
		"reference_element": {},
		"fixation_time": 700,
		"fixation_mark_html": "<img class='toj-fixation-mark absolute-position' src='./images/fixmark.png'></img>",
		"data": {
			"probeLeft": false,
			"salient": false
		},
		"response_key": "u",
		"response": "reference",
		"response_correct": true,
		"measured_soa": 101.54999999940628,
		"rt": 417.40500000014435,
		"probeLeft": false,
		"salient": false,
		"trial_type": "toj",
		"trial_index": 65,
		"time_elapsed": 188602,
		"internal_node_id": "0.0-5.0-0.1-0.50"
	},
	{
		"type": "toj",
		"soa": -50,
		"probe_key": "u",
		"reference_key": "v",
		"probe_element": {},
		"reference_element": {},
		"fixation_time": 700,
		"fixation_mark_html": "<img class='toj-fixation-mark absolute-position' src='./images/fixmark.png'></img>",
		"data": {
			"probeLeft": true,
			"salient": true
		},
		"response_key": "u",
		"response": "probe",
		"response_correct": true,
		"measured_soa": -51.06000000523636,
		"rt": 480.4900000017369,
		"probeLeft": true,
		"salient": true,
		"trial_type": "toj",
		"trial_index": 66,
		"time_elapsed": 189839,
		"internal_node_id": "0.0-5.0-0.1-0.51"
	},
	{
		"type": "toj",
		"soa": 150,
		"probe_key": "u",
		"reference_key": "v",
		"probe_element": {},
		"reference_element": {},
		"fixation_time": 700,
		"fixation_mark_html": "<img class='toj-fixation-mark absolute-position' src='./images/fixmark.png'></img>",
		"data": {
			"probeLeft": true,
			"salient": false
		},
		"response_key": "v",
		"response": "reference",
		"response_correct": true,
		"measured_soa": 151.545000000624,
		"rt": 250.44999999954598,
		"probeLeft": true,
		"salient": false,
		"trial_type": "toj",
		"trial_index": 67,
		"time_elapsed": 190944,
		"internal_node_id": "0.0-5.0-0.1-0.52"
	},
	{
		"type": "toj",
		"soa": 50,
		"probe_key": "v",
		"reference_key": "u",
		"probe_element": {},
		"reference_element": {},
		"fixation_time": 700,
		"fixation_mark_html": "<img class='toj-fixation-mark absolute-position' src='./images/fixmark.png'></img>",
		"data": {
			"probeLeft": false,
			"salient": false
		},
		"response_key": "u",
		"response": "reference",
		"response_correct": true,
		"measured_soa": 51.574999997683335,
		"rt": 645.9150000009686,
		"probeLeft": false,
		"salient": false,
		"trial_type": "toj",
		"trial_index": 68,
		"time_elapsed": 192345,
		"internal_node_id": "0.0-5.0-0.1-0.53"
	},
	{
		"type": "toj",
		"soa": -150,
		"probe_key": "v",
		"reference_key": "u",
		"probe_element": {},
		"reference_element": {},
		"fixation_time": 700,
		"fixation_mark_html": "<img class='toj-fixation-mark absolute-position' src='./images/fixmark.png'></img>",
		"data": {
			"probeLeft": false,
			"salient": false
		},
		"response_key": "v",
		"response": "probe",
		"response_correct": true,
		"measured_soa": -151.47000000433763,
		"rt": 387.1500000022934,
		"probeLeft": false,
		"salient": false,
		"trial_type": "toj",
		"trial_index": 69,
		"time_elapsed": 193589,
		"internal_node_id": "0.0-5.0-0.1-0.54"
	},
	{
		"type": "toj",
		"soa": 100,
		"probe_key": "u",
		"reference_key": "v",
		"probe_element": {},
		"reference_element": {},
		"fixation_time": 700,
		"fixation_mark_html": "<img class='toj-fixation-mark absolute-position' src='./images/fixmark.png'></img>",
		"data": {
			"probeLeft": true,
			"salient": false
		},
		"response_key": "v",
		"response": "reference",
		"response_correct": true,
		"measured_soa": 101.54999999940628,
		"rt": 498.04500000027474,
		"probeLeft": true,
		"salient": false,
		"trial_type": "toj",
		"trial_index": 70,
		"time_elapsed": 194892,
		"internal_node_id": "0.0-5.0-0.1-0.55"
	},
	{
		"rt": 729,
		"stimulus": "<p>You finished block 2 of 5.<p/><p>Press any key to continue.</p>",
		"key_press": 32,
		"trial_type": "html-keyboard-response",
		"trial_index": 71,
		"time_elapsed": 195622,
		"internal_node_id": "0.0-5.0-1.1"
	},
	{
		"type": "toj",
		"soa": -100,
		"probe_key": "u",
		"reference_key": "v",
		"probe_element": {},
		"reference_element": {},
		"fixation_time": 700,
		"fixation_mark_html": "<img class='toj-fixation-mark absolute-position' src='./images/fixmark.png'></img>",
		"data": {
			"probeLeft": true,
			"salient": false
		},
		"response_key": "u",
		"response": "probe",
		"response_correct": true,
		"measured_soa": -101.47500000311993,
		"rt": 383.1300000019837,
		"probeLeft": true,
		"salient": false,
		"trial_type": "toj",
		"trial_index": 72,
		"time_elapsed": 196810,
		"internal_node_id": "0.0-5.0-0.2-0.56"
	},
	{
		"type": "toj",
		"soa": -150,
		"probe_key": "u",
		"reference_key": "v",
		"probe_element": {},
		"reference_element": {},
		"fixation_time": 700,
		"fixation_mark_html": "<img class='toj-fixation-mark absolute-position' src='./images/fixmark.png'></img>",
		"data": {
			"probeLeft": true,
			"salient": true
		},
		"response_key": "u",
		"response": "probe",
		"response_correct": true,
		"measured_soa": -151.2499999953434,
		"rt": 304.64999999821885,
		"probeLeft": true,
		"salient": true,
		"trial_type": "toj",
		"trial_index": 73,
		"time_elapsed": 197969,
		"internal_node_id": "0.0-5.0-0.2-0.57"
	},
	{
		"type": "toj",
		"soa": 50,
		"probe_key": "v",
		"reference_key": "u",
		"probe_element": {},
		"reference_element": {},
		"fixation_time": 700,
		"fixation_mark_html": "<img class='toj-fixation-mark absolute-position' src='./images/fixmark.png'></img>",
		"data": {
			"probeLeft": false,
			"salient": true
		},
		"response_key": "u",
		"response": "reference",
		"response_correct": true,
		"measured_soa": 50.360000001091976,
		"rt": 912.4249999949825,
		"probeLeft": false,
		"salient": true,
		"trial_type": "toj",
		"trial_index": 74,
		"time_elapsed": 199635,
		"internal_node_id": "0.0-5.0-0.2-0.58"
	},
	{
		"type": "toj",
		"soa": 100,
		"probe_key": "u",
		"reference_key": "v",
		"probe_element": {},
		"reference_element": {},
		"fixation_time": 700,
		"fixation_mark_html": "<img class='toj-fixation-mark absolute-position' src='./images/fixmark.png'></img>",
		"data": {
			"probeLeft": true,
			"salient": true
		},
		"response_key": "u",
		"response": "probe",
		"response_correct": false,
		"measured_soa": 101.29500000039116,
		"rt": 572.5899999961257,
		"probeLeft": true,
		"salient": true,
		"trial_type": "toj",
		"trial_index": 75,
		"time_elapsed": 201012,
		"internal_node_id": "0.0-5.0-0.2-0.59"
	},
	{
		"type": "toj",
		"soa": -50,
		"probe_key": "u",
		"reference_key": "v",
		"probe_element": {},
		"reference_element": {},
		"fixation_time": 700,
		"fixation_mark_html": "<img class='toj-fixation-mark absolute-position' src='./images/fixmark.png'></img>",
		"data": {
			"probeLeft": true,
			"salient": true
		},
		"response_key": "u",
		"response": "probe",
		"response_correct": true,
		"measured_soa": -51.43500000122003,
		"rt": 754.4049999996787,
		"probeLeft": true,
		"salient": true,
		"trial_type": "toj",
		"trial_index": 76,
		"time_elapsed": 202521,
		"internal_node_id": "0.0-5.0-0.2-0.60"
	},
	{
		"type": "toj",
		"soa": 150,
		"probe_key": "u",
		"reference_key": "v",
		"probe_element": {},
		"reference_element": {},
		"fixation_time": 700,
		"fixation_mark_html": "<img class='toj-fixation-mark absolute-position' src='./images/fixmark.png'></img>",
		"data": {
			"probeLeft": true,
			"salient": true
		},
		"response_key": "v",
		"response": "reference",
		"response_correct": true,
		"measured_soa": 150.80500000476604,
		"rt": 287.1050000030664,
		"probeLeft": true,
		"salient": true,
		"trial_type": "toj",
		"trial_index": 77,
		"time_elapsed": 203661,
		"internal_node_id": "0.0-5.0-0.2-0.61"
	},
	{
		"type": "toj",
		"soa": -150,
		"probe_key": "v",
		"reference_key": "u",
		"probe_element": {},
		"reference_element": {},
		"fixation_time": 700,
		"fixation_mark_html": "<img class='toj-fixation-mark absolute-position' src='./images/fixmark.png'></img>",
		"data": {
			"probeLeft": false,
			"salient": true
		},
		"response_key": "v",
		"response": "probe",
		"response_correct": true,
		"measured_soa": -151.46999999706168,
		"rt": 1227.8250000017579,
		"probeLeft": false,
		"salient": true,
		"trial_type": "toj",
		"trial_index": 78,
		"time_elapsed": 205744,
		"internal_node_id": "0.0-5.0-0.2-0.62"
	},
	{
		"type": "toj",
		"soa": 100,
		"probe_key": "u",
		"reference_key": "v",
		"probe_element": {},
		"reference_element": {},
		"fixation_time": 700,
		"fixation_mark_html": "<img class='toj-fixation-mark absolute-position' src='./images/fixmark.png'></img>",
		"data": {
			"probeLeft": true,
			"salient": false
		},
		"response_key": "v",
		"response": "reference",
		"response_correct": true,
		"measured_soa": 101.09500000544358,
		"rt": 502.6450000004843,
		"probeLeft": true,
		"salient": false,
		"trial_type": "toj",
		"trial_index": 79,
		"time_elapsed": 207050,
		"internal_node_id": "0.0-5.0-0.2-0.63"
	},
	{
		"type": "toj",
		"soa": 0,
		"probe_key": "v",
		"reference_key": "u",
		"probe_element": {},
		"reference_element": {},
		"fixation_time": 700,
		"fixation_mark_html": "<img class='toj-fixation-mark absolute-position' src='./images/fixmark.png'></img>",
		"data": {
			"probeLeft": false,
			"salient": true
		},
		"response_key": "v",
		"response": "probe",
		"response_correct": true,
		"measured_soa": 0.07500000356230885,
		"rt": 1216.0099999964586,
		"probeLeft": false,
		"salient": true,
		"trial_type": "toj",
		"trial_index": 80,
		"time_elapsed": 208969,
		"internal_node_id": "0.0-5.0-0.2-0.64"
	},
	{
		"type": "toj",
		"soa": 100,
		"probe_key": "v",
		"reference_key": "u",
		"probe_element": {},
		"reference_element": {},
		"fixation_time": 700,
		"fixation_mark_html": "<img class='toj-fixation-mark absolute-position' src='./images/fixmark.png'></img>",
		"data": {
			"probeLeft": false,
			"salient": true
		},
		"response_key": "u",
		"response": "reference",
		"response_correct": true,
		"measured_soa": 101.55500000109896,
		"rt": 343.01000000414206,
		"probeLeft": false,
		"salient": true,
		"trial_type": "toj",
		"trial_index": 81,
		"time_elapsed": 210117,
		"internal_node_id": "0.0-5.0-0.2-0.65"
	},
	{
		"type": "toj",
		"soa": 50,
		"probe_key": "u",
		"reference_key": "v",
		"probe_element": {},
		"reference_element": {},
		"fixation_time": 700,
		"fixation_mark_html": "<img class='toj-fixation-mark absolute-position' src='./images/fixmark.png'></img>",
		"data": {
			"probeLeft": true,
			"salient": true
		},
		"response_key": "v",
		"response": "reference",
		"response_correct": true,
		"measured_soa": 50.69999999977881,
		"rt": 867.419999995036,
		"probeLeft": true,
		"salient": true,
		"trial_type": "toj",
		"trial_index": 82,
		"time_elapsed": 211738,
		"internal_node_id": "0.0-5.0-0.2-0.66"
	},
	{
		"type": "toj",
		"soa": 0,
		"probe_key": "u",
		"reference_key": "v",
		"probe_element": {},
		"reference_element": {},
		"fixation_time": 700,
		"fixation_mark_html": "<img class='toj-fixation-mark absolute-position' src='./images/fixmark.png'></img>",
		"data": {
			"probeLeft": true,
			"salient": false
		},
		"response_key": "u",
		"response": "probe",
		"response_correct": true,
		"measured_soa": 0.055000004067551345,
		"rt": 494.395000001532,
		"probeLeft": true,
		"salient": false,
		"trial_type": "toj",
		"trial_index": 83,
		"time_elapsed": 212936,
		"internal_node_id": "0.0-5.0-0.2-0.67"
	},
	{
		"type": "toj",
		"soa": -100,
		"probe_key": "u",
		"reference_key": "v",
		"probe_element": {},
		"reference_element": {},
		"fixation_time": 700,
		"fixation_mark_html": "<img class='toj-fixation-mark absolute-position' src='./images/fixmark.png'></img>",
		"data": {
			"probeLeft": true,
			"salient": true
		},
		"response_key": "u",
		"response": "probe",
		"response_correct": true,
		"measured_soa": -100.78999999677762,
		"rt": 561.7249999995693,
		"probeLeft": true,
		"salient": true,
		"trial_type": "toj",
		"trial_index": 84,
		"time_elapsed": 214301,
		"internal_node_id": "0.0-5.0-0.2-0.68"
	},
	{
		"type": "toj",
		"soa": -50,
		"probe_key": "u",
		"reference_key": "v",
		"probe_element": {},
		"reference_element": {},
		"fixation_time": 700,
		"fixation_mark_html": "<img class='toj-fixation-mark absolute-position' src='./images/fixmark.png'></img>",
		"data": {
			"probeLeft": true,
			"salient": false
		},
		"response_key": "v",
		"response": "reference",
		"response_correct": false,
		"measured_soa": -50.52000000432599,
		"rt": 667.0500000036554,
		"probeLeft": true,
		"salient": false,
		"trial_type": "toj",
		"trial_index": 85,
		"time_elapsed": 215721,
		"internal_node_id": "0.0-5.0-0.2-0.69"
	},
	{
		"type": "toj",
		"soa": -50,
		"probe_key": "v",
		"reference_key": "u",
		"probe_element": {},
		"reference_element": {},
		"fixation_time": 700,
		"fixation_mark_html": "<img class='toj-fixation-mark absolute-position' src='./images/fixmark.png'></img>",
		"data": {
			"probeLeft": false,
			"salient": true
		},
		"response_key": "v",
		"response": "probe",
		"response_correct": true,
		"measured_soa": -50.94499999540858,
		"rt": 1641.715000005206,
		"probeLeft": false,
		"salient": true,
		"trial_type": "toj",
		"trial_index": 86,
		"time_elapsed": 218118,
		"internal_node_id": "0.0-5.0-0.2-0.70"
	},
	{
		"type": "toj",
		"soa": -100,
		"probe_key": "v",
		"reference_key": "u",
		"probe_element": {},
		"reference_element": {},
		"fixation_time": 700,
		"fixation_mark_html": "<img class='toj-fixation-mark absolute-position' src='./images/fixmark.png'></img>",
		"data": {
			"probeLeft": false,
			"salient": true
		},
		"response_key": "u",
		"response": "reference",
		"response_correct": false,
		"measured_soa": -101.56499999720836,
		"rt": 1470.3199999930803,
		"probeLeft": false,
		"salient": true,
		"trial_type": "toj",
		"trial_index": 87,
		"time_elapsed": 220393,
		"internal_node_id": "0.0-5.0-0.2-0.71"
	},
	{
		"type": "toj",
		"soa": 0,
		"probe_key": "u",
		"reference_key": "v",
		"probe_element": {},
		"reference_element": {},
		"fixation_time": 700,
		"fixation_mark_html": "<img class='toj-fixation-mark absolute-position' src='./images/fixmark.png'></img>",
		"data": {
			"probeLeft": true,
			"salient": true
		},
		"response_key": "u",
		"response": "probe",
		"response_correct": true,
		"measured_soa": 0.06500000017695129,
		"rt": 700.8999999961816,
		"probeLeft": true,
		"salient": true,
		"trial_type": "toj",
		"trial_index": 88,
		"time_elapsed": 221797,
		"internal_node_id": "0.0-5.0-0.2-0.72"
	},
	{
		"type": "toj",
		"soa": -100,
		"probe_key": "v",
		"reference_key": "u",
		"probe_element": {},
		"reference_element": {},
		"fixation_time": 700,
		"fixation_mark_html": "<img class='toj-fixation-mark absolute-position' src='./images/fixmark.png'></img>",
		"data": {
			"probeLeft": false,
			"salient": false
		},
		"response_key": "u",
		"response": "reference",
		"response_correct": false,
		"measured_soa": -101.55500000109896,
		"rt": 1418.165000002773,
		"probeLeft": false,
		"salient": false,
		"trial_type": "toj",
		"trial_index": 89,
		"time_elapsed": 224020,
		"internal_node_id": "0.0-5.0-0.2-0.73"
	},
	{
		"type": "toj",
		"soa": 50,
		"probe_key": "u",
		"reference_key": "v",
		"probe_element": {},
		"reference_element": {},
		"fixation_time": 700,
		"fixation_mark_html": "<img class='toj-fixation-mark absolute-position' src='./images/fixmark.png'></img>",
		"data": {
			"probeLeft": true,
			"salient": false
		},
		"response_key": "u",
		"response": "probe",
		"response_correct": false,
		"measured_soa": 50.430000002961606,
		"rt": 1368.3900000032736,
		"probeLeft": true,
		"salient": false,
		"trial_type": "toj",
		"trial_index": 90,
		"time_elapsed": 226142,
		"internal_node_id": "0.0-5.0-0.2-0.74"
	},
	{
		"type": "toj",
		"soa": -150,
		"probe_key": "v",
		"reference_key": "u",
		"probe_element": {},
		"reference_element": {},
		"fixation_time": 700,
		"fixation_mark_html": "<img class='toj-fixation-mark absolute-position' src='./images/fixmark.png'></img>",
		"data": {
			"probeLeft": false,
			"salient": false
		},
		"response_key": "v",
		"response": "probe",
		"response_correct": true,
		"measured_soa": -151.54499999334803,
		"rt": 350.26499999366933,
		"probeLeft": false,
		"salient": false,
		"trial_type": "toj",
		"trial_index": 91,
		"time_elapsed": 227347,
		"internal_node_id": "0.0-5.0-0.2-0.75"
	},
	{
		"type": "toj",
		"soa": 150,
		"probe_key": "v",
		"reference_key": "u",
		"probe_element": {},
		"reference_element": {},
		"fixation_time": 700,
		"fixation_mark_html": "<img class='toj-fixation-mark absolute-position' src='./images/fixmark.png'></img>",
		"data": {
			"probeLeft": false,
			"salient": true
		},
		"response_key": "u",
		"response": "reference",
		"response_correct": true,
		"measured_soa": 151.55500000400934,
		"rt": 1248.234999999113,
		"probeLeft": false,
		"salient": true,
		"trial_type": "toj",
		"trial_index": 92,
		"time_elapsed": 229450,
		"internal_node_id": "0.0-5.0-0.2-0.76"
	},
	{
		"type": "toj",
		"soa": 150,
		"probe_key": "v",
		"reference_key": "u",
		"probe_element": {},
		"reference_element": {},
		"fixation_time": 700,
		"fixation_mark_html": "<img class='toj-fixation-mark absolute-position' src='./images/fixmark.png'></img>",
		"data": {
			"probeLeft": false,
			"salient": false
		},
		"response_key": "u",
		"response": "reference",
		"response_correct": true,
		"measured_soa": 151.46999999706168,
		"rt": 507.45499999902677,
		"probeLeft": false,
		"salient": false,
		"trial_type": "toj",
		"trial_index": 93,
		"time_elapsed": 230813,
		"internal_node_id": "0.0-5.0-0.2-0.77"
	},
	{
		"type": "toj",
		"soa": 150,
		"probe_key": "u",
		"reference_key": "v",
		"probe_element": {},
		"reference_element": {},
		"fixation_time": 700,
		"fixation_mark_html": "<img class='toj-fixation-mark absolute-position' src='./images/fixmark.png'></img>",
		"data": {
			"probeLeft": true,
			"salient": false
		},
		"response_key": "v",
		"response": "reference",
		"response_correct": true,
		"measured_soa": 151.4450000031502,
		"rt": 326.1350000029779,
		"probeLeft": true,
		"salient": false,
		"trial_type": "toj",
		"trial_index": 94,
		"time_elapsed": 231993,
		"internal_node_id": "0.0-5.0-0.2-0.78"
	},
	{
		"type": "toj",
		"soa": -50,
		"probe_key": "v",
		"reference_key": "u",
		"probe_element": {},
		"reference_element": {},
		"fixation_time": 700,
		"fixation_mark_html": "<img class='toj-fixation-mark absolute-position' src='./images/fixmark.png'></img>",
		"data": {
			"probeLeft": false,
			"salient": false
		},
		"response_key": "v",
		"response": "probe",
		"response_correct": true,
		"measured_soa": -51.05500000354368,
		"rt": 590.8449999988079,
		"probeLeft": false,
		"salient": false,
		"trial_type": "toj",
		"trial_index": 95,
		"time_elapsed": 233337,
		"internal_node_id": "0.0-5.0-0.2-0.79"
	},
	{
		"type": "toj",
		"soa": -150,
		"probe_key": "u",
		"reference_key": "v",
		"probe_element": {},
		"reference_element": {},
		"fixation_time": 700,
		"fixation_mark_html": "<img class='toj-fixation-mark absolute-position' src='./images/fixmark.png'></img>",
		"data": {
			"probeLeft": true,
			"salient": false
		},
		"response_key": "u",
		"response": "probe",
		"response_correct": true,
		"measured_soa": -150.5749999996624,
		"rt": 515.3900000004796,
		"probeLeft": true,
		"salient": false,
		"trial_type": "toj",
		"trial_index": 96,
		"time_elapsed": 234706,
		"internal_node_id": "0.0-5.0-0.2-0.80"
	},
	{
		"type": "toj",
		"soa": 100,
		"probe_key": "v",
		"reference_key": "u",
		"probe_element": {},
		"reference_element": {},
		"fixation_time": 700,
		"fixation_mark_html": "<img class='toj-fixation-mark absolute-position' src='./images/fixmark.png'></img>",
		"data": {
			"probeLeft": false,
			"salient": false
		},
		"response_key": "u",
		"response": "reference",
		"response_correct": true,
		"measured_soa": 101.57500000059372,
		"rt": 609.230000001844,
		"probeLeft": false,
		"salient": false,
		"trial_type": "toj",
		"trial_index": 97,
		"time_elapsed": 236120,
		"internal_node_id": "0.0-5.0-0.2-0.81"
	},
	{
		"type": "toj",
		"soa": 0,
		"probe_key": "v",
		"reference_key": "u",
		"probe_element": {},
		"reference_element": {},
		"fixation_time": 700,
		"fixation_mark_html": "<img class='toj-fixation-mark absolute-position' src='./images/fixmark.png'></img>",
		"data": {
			"probeLeft": false,
			"salient": false
		},
		"response_key": "u",
		"response": "reference",
		"response_correct": true,
		"measured_soa": 0.09999999747378752,
		"rt": 642.7200000034645,
		"probeLeft": false,
		"salient": false,
		"trial_type": "toj",
		"trial_index": 98,
		"time_elapsed": 237466,
		"internal_node_id": "0.0-5.0-0.2-0.82"
	},
	{
		"type": "toj",
		"soa": 50,
		"probe_key": "v",
		"reference_key": "u",
		"probe_element": {},
		"reference_element": {},
		"fixation_time": 700,
		"fixation_mark_html": "<img class='toj-fixation-mark absolute-position' src='./images/fixmark.png'></img>",
		"data": {
			"probeLeft": false,
			"salient": false
		},
		"response_key": "u",
		"response": "reference",
		"response_correct": true,
		"measured_soa": 51.54500000207918,
		"rt": 1081.2799999985145,
		"probeLeft": false,
		"salient": false,
		"trial_type": "toj",
		"trial_index": 99,
		"time_elapsed": 239301,
		"internal_node_id": "0.0-5.0-0.2-0.83"
	},
	{
		"rt": 750,
		"stimulus": "<p>You finished block 3 of 5.<p/><p>Press any key to continue.</p>",
		"key_press": 32,
		"trial_type": "html-keyboard-response",
		"trial_index": 100,
		"time_elapsed": 240052,
		"internal_node_id": "0.0-5.0-1.2"
	},
	{
		"type": "toj",
		"soa": -50,
		"probe_key": "u",
		"reference_key": "v",
		"probe_element": {},
		"reference_element": {},
		"fixation_time": 700,
		"fixation_mark_html": "<img class='toj-fixation-mark absolute-position' src='./images/fixmark.png'></img>",
		"data": {
			"probeLeft": true,
			"salient": false
		},
		"response_key": "v",
		"response": "reference",
		"response_correct": false,
		"measured_soa": -50.61999999452382,
		"rt": 643.7799999985145,
		"probeLeft": true,
		"salient": false,
		"trial_type": "toj",
		"trial_index": 101,
		"time_elapsed": 241449,
		"internal_node_id": "0.0-5.0-0.3-0.84"
	},
	{
		"type": "toj",
		"soa": 0,
		"probe_key": "v",
		"reference_key": "u",
		"probe_element": {},
		"reference_element": {},
		"fixation_time": 700,
		"fixation_mark_html": "<img class='toj-fixation-mark absolute-position' src='./images/fixmark.png'></img>",
		"data": {
			"probeLeft": false,
			"salient": false
		},
		"response_key": "u",
		"response": "reference",
		"response_correct": true,
		"measured_soa": 0.05999999848427251,
		"rt": 430.6349999969825,
		"probeLeft": false,
		"salient": false,
		"trial_type": "toj",
		"trial_index": 102,
		"time_elapsed": 242583,
		"internal_node_id": "0.0-5.0-0.3-0.85"
	},
	{
		"type": "toj",
		"soa": -150,
		"probe_key": "u",
		"reference_key": "v",
		"probe_element": {},
		"reference_element": {},
		"fixation_time": 700,
		"fixation_mark_html": "<img class='toj-fixation-mark absolute-position' src='./images/fixmark.png'></img>",
		"data": {
			"probeLeft": true,
			"salient": false
		},
		"response_key": "u",
		"response": "probe",
		"response_correct": true,
		"measured_soa": -151.56000000570202,
		"rt": 308.79499999718973,
		"probeLeft": true,
		"salient": false,
		"trial_type": "toj",
		"trial_index": 103,
		"time_elapsed": 243746,
		"internal_node_id": "0.0-5.0-0.3-0.86"
	},
	{
		"type": "toj",
		"soa": 150,
		"probe_key": "v",
		"reference_key": "u",
		"probe_element": {},
		"reference_element": {},
		"fixation_time": 700,
		"fixation_mark_html": "<img class='toj-fixation-mark absolute-position' src='./images/fixmark.png'></img>",
		"data": {
			"probeLeft": false,
			"salient": false
		},
		"response_key": "u",
		"response": "reference",
		"response_correct": true,
		"measured_soa": 151.59999999741558,
		"rt": 340.9599999940838,
		"probeLeft": false,
		"salient": false,
		"trial_type": "toj",
		"trial_index": 104,
		"time_elapsed": 244942,
		"internal_node_id": "0.0-5.0-0.3-0.87"
	},
	{
		"type": "toj",
		"soa": 150,
		"probe_key": "v",
		"reference_key": "u",
		"probe_element": {},
		"reference_element": {},
		"fixation_time": 700,
		"fixation_mark_html": "<img class='toj-fixation-mark absolute-position' src='./images/fixmark.png'></img>",
		"data": {
			"probeLeft": false,
			"salient": true
		},
		"response_key": "u",
		"response": "reference",
		"response_correct": true,
		"measured_soa": 151.47499999875436,
		"rt": 536.2450000029639,
		"probeLeft": false,
		"salient": true,
		"trial_type": "toj",
		"trial_index": 105,
		"time_elapsed": 246333,
		"internal_node_id": "0.0-5.0-0.3-0.88"
	},
	{
		"type": "toj",
		"soa": 0,
		"probe_key": "u",
		"reference_key": "v",
		"probe_element": {},
		"reference_element": {},
		"fixation_time": 700,
		"fixation_mark_html": "<img class='toj-fixation-mark absolute-position' src='./images/fixmark.png'></img>",
		"data": {
			"probeLeft": true,
			"salient": false
		},
		"response_key": "u",
		"response": "probe",
		"response_correct": true,
		"measured_soa": 0.05999999848427251,
		"rt": 500.7899999982328,
		"probeLeft": true,
		"salient": false,
		"trial_type": "toj",
		"trial_index": 106,
		"time_elapsed": 247537,
		"internal_node_id": "0.0-5.0-0.3-0.89"
	},
	{
		"type": "toj",
		"soa": 100,
		"probe_key": "v",
		"reference_key": "u",
		"probe_element": {},
		"reference_element": {},
		"fixation_time": 700,
		"fixation_mark_html": "<img class='toj-fixation-mark absolute-position' src='./images/fixmark.png'></img>",
		"data": {
			"probeLeft": false,
			"salient": false
		},
		"response_key": "u",
		"response": "reference",
		"response_correct": true,
		"measured_soa": 100.3950000012992,
		"rt": 392.3849999991944,
		"probeLeft": false,
		"salient": false,
		"trial_type": "toj",
		"trial_index": 107,
		"time_elapsed": 248733,
		"internal_node_id": "0.0-5.0-0.3-0.90"
	},
	{
		"type": "toj",
		"soa": 150,
		"probe_key": "u",
		"reference_key": "v",
		"probe_element": {},
		"reference_element": {},
		"fixation_time": 700,
		"fixation_mark_html": "<img class='toj-fixation-mark absolute-position' src='./images/fixmark.png'></img>",
		"data": {
			"probeLeft": true,
			"salient": false
		},
		"response_key": "v",
		"response": "reference",
		"response_correct": true,
		"measured_soa": 151.62999999301974,
		"rt": 977.2949999969569,
		"probeLeft": true,
		"salient": false,
		"trial_type": "toj",
		"trial_index": 108,
		"time_elapsed": 250565,
		"internal_node_id": "0.0-5.0-0.3-0.91"
	},
	{
		"type": "toj",
		"soa": -100,
		"probe_key": "v",
		"reference_key": "u",
		"probe_element": {},
		"reference_element": {},
		"fixation_time": 700,
		"fixation_mark_html": "<img class='toj-fixation-mark absolute-position' src='./images/fixmark.png'></img>",
		"data": {
			"probeLeft": false,
			"salient": false
		},
		"response_key": "u",
		"response": "reference",
		"response_correct": false,
		"measured_soa": -100.4899999970803,
		"rt": 978.45000000234,
		"probeLeft": false,
		"salient": false,
		"trial_type": "toj",
		"trial_index": 109,
		"time_elapsed": 252347,
		"internal_node_id": "0.0-5.0-0.3-0.92"
	},
	{
		"type": "toj",
		"soa": -50,
		"probe_key": "v",
		"reference_key": "u",
		"probe_element": {},
		"reference_element": {},
		"fixation_time": 700,
		"fixation_mark_html": "<img class='toj-fixation-mark absolute-position' src='./images/fixmark.png'></img>",
		"data": {
			"probeLeft": false,
			"salient": false
		},
		"response_key": "u",
		"response": "reference",
		"response_correct": false,
		"measured_soa": -51.57500000495929,
		"rt": 483.03499999747146,
		"probeLeft": false,
		"salient": false,
		"trial_type": "toj",
		"trial_index": 110,
		"time_elapsed": 253586,
		"internal_node_id": "0.0-5.0-0.3-0.93"
	},
	{
		"type": "toj",
		"soa": 0,
		"probe_key": "v",
		"reference_key": "u",
		"probe_element": {},
		"reference_element": {},
		"fixation_time": 700,
		"fixation_mark_html": "<img class='toj-fixation-mark absolute-position' src='./images/fixmark.png'></img>",
		"data": {
			"probeLeft": false,
			"salient": true
		},
		"response_key": "u",
		"response": "reference",
		"response_correct": true,
		"measured_soa": 0.12000000424450263,
		"rt": 763.7350000004517,
		"probeLeft": false,
		"salient": true,
		"trial_type": "toj",
		"trial_index": 111,
		"time_elapsed": 255053,
		"internal_node_id": "0.0-5.0-0.3-0.94"
	},
	{
		"type": "toj",
		"soa": 100,
		"probe_key": "u",
		"reference_key": "v",
		"probe_element": {},
		"reference_element": {},
		"fixation_time": 700,
		"fixation_mark_html": "<img class='toj-fixation-mark absolute-position' src='./images/fixmark.png'></img>",
		"data": {
			"probeLeft": true,
			"salient": false
		},
		"response_key": "v",
		"response": "reference",
		"response_correct": true,
		"measured_soa": 100.53999999945518,
		"rt": 630.2100000029895,
		"probeLeft": true,
		"salient": false,
		"trial_type": "toj",
		"trial_index": 112,
		"time_elapsed": 256487,
		"internal_node_id": "0.0-5.0-0.3-0.95"
	},
	{
		"type": "toj",
		"soa": 0,
		"probe_key": "u",
		"reference_key": "v",
		"probe_element": {},
		"reference_element": {},
		"fixation_time": 700,
		"fixation_mark_html": "<img class='toj-fixation-mark absolute-position' src='./images/fixmark.png'></img>",
		"data": {
			"probeLeft": true,
			"salient": true
		},
		"response_key": "v",
		"response": "reference",
		"response_correct": true,
		"measured_soa": 0.06500000017695129,
		"rt": 1244.6099999942817,
		"probeLeft": true,
		"salient": true,
		"trial_type": "toj",
		"trial_index": 113,
		"time_elapsed": 258435,
		"internal_node_id": "0.0-5.0-0.3-0.96"
	},
	{
		"type": "toj",
		"soa": 150,
		"probe_key": "u",
		"reference_key": "v",
		"probe_element": {},
		"reference_element": {},
		"fixation_time": 700,
		"fixation_mark_html": "<img class='toj-fixation-mark absolute-position' src='./images/fixmark.png'></img>",
		"data": {
			"probeLeft": true,
			"salient": true
		},
		"response_key": "v",
		"response": "reference",
		"response_correct": true,
		"measured_soa": 151.59000000130618,
		"rt": 473.2700000022305,
		"probeLeft": true,
		"salient": true,
		"trial_type": "toj",
		"trial_index": 114,
		"time_elapsed": 259763,
		"internal_node_id": "0.0-5.0-0.3-0.97"
	},
	{
		"type": "toj",
		"soa": 50,
		"probe_key": "u",
		"reference_key": "v",
		"probe_element": {},
		"reference_element": {},
		"fixation_time": 700,
		"fixation_mark_html": "<img class='toj-fixation-mark absolute-position' src='./images/fixmark.png'></img>",
		"data": {
			"probeLeft": true,
			"salient": false
		},
		"response_key": "v",
		"response": "reference",
		"response_correct": true,
		"measured_soa": 51.16500000440283,
		"rt": 627.7899999986403,
		"probeLeft": true,
		"salient": false,
		"trial_type": "toj",
		"trial_index": 115,
		"time_elapsed": 261145,
		"internal_node_id": "0.0-5.0-0.3-0.98"
	},
	{
		"type": "toj",
		"soa": -150,
		"probe_key": "v",
		"reference_key": "u",
		"probe_element": {},
		"reference_element": {},
		"fixation_time": 700,
		"fixation_mark_html": "<img class='toj-fixation-mark absolute-position' src='./images/fixmark.png'></img>",
		"data": {
			"probeLeft": false,
			"salient": false
		},
		"response_key": "v",
		"response": "probe",
		"response_correct": true,
		"measured_soa": -150.51999999559484,
		"rt": 477.37499999493593,
		"probeLeft": false,
		"salient": false,
		"trial_type": "toj",
		"trial_index": 116,
		"time_elapsed": 262476,
		"internal_node_id": "0.0-5.0-0.3-0.99"
	},
	{
		"type": "toj",
		"soa": -150,
		"probe_key": "u",
		"reference_key": "v",
		"probe_element": {},
		"reference_element": {},
		"fixation_time": 700,
		"fixation_mark_html": "<img class='toj-fixation-mark absolute-position' src='./images/fixmark.png'></img>",
		"data": {
			"probeLeft": true,
			"salient": true
		},
		"response_key": "u",
		"response": "probe",
		"response_correct": true,
		"measured_soa": -150.9650000007241,
		"rt": 289.8399999976391,
		"probeLeft": true,
		"salient": true,
		"trial_type": "toj",
		"trial_index": 117,
		"time_elapsed": 263620,
		"internal_node_id": "0.0-5.0-0.3-0.100"
	},
	{
		"type": "toj",
		"soa": -100,
		"probe_key": "u",
		"reference_key": "v",
		"probe_element": {},
		"reference_element": {},
		"fixation_time": 700,
		"fixation_mark_html": "<img class='toj-fixation-mark absolute-position' src='./images/fixmark.png'></img>",
		"data": {
			"probeLeft": true,
			"salient": true
		},
		"response_key": "u",
		"response": "probe",
		"response_correct": true,
		"measured_soa": -100.64499999862164,
		"rt": 551.3649999993504,
		"probeLeft": true,
		"salient": true,
		"trial_type": "toj",
		"trial_index": 118,
		"time_elapsed": 264975,
		"internal_node_id": "0.0-5.0-0.3-0.101"
	},
	{
		"type": "toj",
		"soa": 100,
		"probe_key": "u",
		"reference_key": "v",
		"probe_element": {},
		"reference_element": {},
		"fixation_time": 700,
		"fixation_mark_html": "<img class='toj-fixation-mark absolute-position' src='./images/fixmark.png'></img>",
		"data": {
			"probeLeft": true,
			"salient": true
		},
		"response_key": "v",
		"response": "reference",
		"response_correct": true,
		"measured_soa": 101.5449999977136,
		"rt": 659.2100000052596,
		"probeLeft": true,
		"salient": true,
		"trial_type": "toj",
		"trial_index": 119,
		"time_elapsed": 266438,
		"internal_node_id": "0.0-5.0-0.3-0.102"
	},
	{
		"type": "toj",
		"soa": -50,
		"probe_key": "u",
		"reference_key": "v",
		"probe_element": {},
		"reference_element": {},
		"fixation_time": 700,
		"fixation_mark_html": "<img class='toj-fixation-mark absolute-position' src='./images/fixmark.png'></img>",
		"data": {
			"probeLeft": true,
			"salient": true
		},
		"response_key": "u",
		"response": "probe",
		"response_correct": true,
		"measured_soa": -50.38000000058673,
		"rt": 498.58999999560183,
		"probeLeft": true,
		"salient": true,
		"trial_type": "toj",
		"trial_index": 120,
		"time_elapsed": 267690,
		"internal_node_id": "0.0-5.0-0.3-0.103"
	},
	{
		"type": "toj",
		"soa": -150,
		"probe_key": "v",
		"reference_key": "u",
		"probe_element": {},
		"reference_element": {},
		"fixation_time": 700,
		"fixation_mark_html": "<img class='toj-fixation-mark absolute-position' src='./images/fixmark.png'></img>",
		"data": {
			"probeLeft": false,
			"salient": true
		},
		"response_key": "v",
		"response": "probe",
		"response_correct": true,
		"measured_soa": -151.3649999978952,
		"rt": 309.1550000026473,
		"probeLeft": false,
		"salient": true,
		"trial_type": "toj",
		"trial_index": 121,
		"time_elapsed": 268853,
		"internal_node_id": "0.0-5.0-0.3-0.104"
	},
	{
		"type": "toj",
		"soa": 100,
		"probe_key": "v",
		"reference_key": "u",
		"probe_element": {},
		"reference_element": {},
		"fixation_time": 700,
		"fixation_mark_html": "<img class='toj-fixation-mark absolute-position' src='./images/fixmark.png'></img>",
		"data": {
			"probeLeft": false,
			"salient": true
		},
		"response_key": "u",
		"response": "reference",
		"response_correct": true,
		"measured_soa": 101.56000000279164,
		"rt": 719.3900000056601,
		"probeLeft": false,
		"salient": true,
		"trial_type": "toj",
		"trial_index": 122,
		"time_elapsed": 270378,
		"internal_node_id": "0.0-5.0-0.3-0.105"
	},
	{
		"type": "toj",
		"soa": -100,
		"probe_key": "v",
		"reference_key": "u",
		"probe_element": {},
		"reference_element": {},
		"fixation_time": 700,
		"fixation_mark_html": "<img class='toj-fixation-mark absolute-position' src='./images/fixmark.png'></img>",
		"data": {
			"probeLeft": false,
			"salient": true
		},
		"response_key": "v",
		"response": "probe",
		"response_correct": true,
		"measured_soa": -100.38000000349712,
		"rt": 500.30500000139,
		"probeLeft": false,
		"salient": true,
		"trial_type": "toj",
		"trial_index": 123,
		"time_elapsed": 271681,
		"internal_node_id": "0.0-5.0-0.3-0.106"
	},
	{
		"type": "toj",
		"soa": 50,
		"probe_key": "v",
		"reference_key": "u",
		"probe_element": {},
		"reference_element": {},
		"fixation_time": 700,
		"fixation_mark_html": "<img class='toj-fixation-mark absolute-position' src='./images/fixmark.png'></img>",
		"data": {
			"probeLeft": false,
			"salient": false
		},
		"response_key": "u",
		"response": "reference",
		"response_correct": true,
		"measured_soa": 51.405000005615875,
		"rt": 943.939999997383,
		"probeLeft": false,
		"salient": false,
		"trial_type": "toj",
		"trial_index": 124,
		"time_elapsed": 273379,
		"internal_node_id": "0.0-5.0-0.3-0.107"
	},
	{
		"type": "toj",
		"soa": -50,
		"probe_key": "v",
		"reference_key": "u",
		"probe_element": {},
		"reference_element": {},
		"fixation_time": 700,
		"fixation_mark_html": "<img class='toj-fixation-mark absolute-position' src='./images/fixmark.png'></img>",
		"data": {
			"probeLeft": false,
			"salient": true
		},
		"response_key": "v",
		"response": "probe",
		"response_correct": true,
		"measured_soa": -50.57999999553431,
		"rt": 1016.3099999990663,
		"probeLeft": false,
		"salient": true,
		"trial_type": "toj",
		"trial_index": 125,
		"time_elapsed": 275149,
		"internal_node_id": "0.0-5.0-0.3-0.108"
	},
	{
		"type": "toj",
		"soa": 50,
		"probe_key": "v",
		"reference_key": "u",
		"probe_element": {},
		"reference_element": {},
		"fixation_time": 700,
		"fixation_mark_html": "<img class='toj-fixation-mark absolute-position' src='./images/fixmark.png'></img>",
		"data": {
			"probeLeft": false,
			"salient": true
		},
		"response_key": "u",
		"response": "reference",
		"response_correct": true,
		"measured_soa": 51.58500000106869,
		"rt": 625.4100000005565,
		"probeLeft": false,
		"salient": true,
		"trial_type": "toj",
		"trial_index": 126,
		"time_elapsed": 276529,
		"internal_node_id": "0.0-5.0-0.3-0.109"
	},
	{
		"type": "toj",
		"soa": 50,
		"probe_key": "u",
		"reference_key": "v",
		"probe_element": {},
		"reference_element": {},
		"fixation_time": 700,
		"fixation_mark_html": "<img class='toj-fixation-mark absolute-position' src='./images/fixmark.png'></img>",
		"data": {
			"probeLeft": true,
			"salient": true
		},
		"response_key": "u",
		"response": "probe",
		"response_correct": false,
		"measured_soa": 51.16500000440283,
		"rt": 699.2649999956484,
		"probeLeft": true,
		"salient": true,
		"trial_type": "toj",
		"trial_index": 127,
		"time_elapsed": 277982,
		"internal_node_id": "0.0-5.0-0.3-0.110"
	},
	{
		"type": "toj",
		"soa": -100,
		"probe_key": "u",
		"reference_key": "v",
		"probe_element": {},
		"reference_element": {},
		"fixation_time": 700,
		"fixation_mark_html": "<img class='toj-fixation-mark absolute-position' src='./images/fixmark.png'></img>",
		"data": {
			"probeLeft": true,
			"salient": false
		},
		"response_key": "u",
		"response": "probe",
		"response_correct": true,
		"measured_soa": -101.54999999940628,
		"rt": 662.094999999681,
		"probeLeft": true,
		"salient": false,
		"trial_type": "toj",
		"trial_index": 128,
		"time_elapsed": 279448,
		"internal_node_id": "0.0-5.0-0.3-0.111"
	},
	{
		"rt": 740,
		"stimulus": "<p>You finished block 4 of 5.<p/><p>Press any key to continue.</p>",
		"key_press": 32,
		"trial_type": "html-keyboard-response",
		"trial_index": 129,
		"time_elapsed": 280189,
		"internal_node_id": "0.0-5.0-1.3"
	},
	{
		"type": "toj",
		"soa": -150,
		"probe_key": "v",
		"reference_key": "u",
		"probe_element": {},
		"reference_element": {},
		"fixation_time": 700,
		"fixation_mark_html": "<img class='toj-fixation-mark absolute-position' src='./images/fixmark.png'></img>",
		"data": {
			"probeLeft": false,
			"salient": true
		},
		"response_key": "v",
		"response": "probe",
		"response_correct": true,
		"measured_soa": -151.48000000044703,
		"rt": 275.2650000038557,
		"probeLeft": false,
		"salient": true,
		"trial_type": "toj",
		"trial_index": 130,
		"time_elapsed": 281318,
		"internal_node_id": "0.0-5.0-0.4-0.112"
	},
	{
		"type": "toj",
		"soa": 100,
		"probe_key": "u",
		"reference_key": "v",
		"probe_element": {},
		"reference_element": {},
		"fixation_time": 700,
		"fixation_mark_html": "<img class='toj-fixation-mark absolute-position' src='./images/fixmark.png'></img>",
		"data": {
			"probeLeft": true,
			"salient": true
		},
		"response_key": "v",
		"response": "reference",
		"response_correct": true,
		"measured_soa": 101.5999999945052,
		"rt": 454.4049999967683,
		"probeLeft": true,
		"salient": true,
		"trial_type": "toj",
		"trial_index": 131,
		"time_elapsed": 282578,
		"internal_node_id": "0.0-5.0-0.4-0.113"
	},
	{
		"type": "toj",
		"soa": 50,
		"probe_key": "u",
		"reference_key": "v",
		"probe_element": {},
		"reference_element": {},
		"fixation_time": 700,
		"fixation_mark_html": "<img class='toj-fixation-mark absolute-position' src='./images/fixmark.png'></img>",
		"data": {
			"probeLeft": true,
			"salient": false
		},
		"response_key": "v",
		"response": "reference",
		"response_correct": true,
		"measured_soa": 50.49000000144588,
		"rt": 584.0049999969779,
		"probeLeft": true,
		"salient": false,
		"trial_type": "toj",
		"trial_index": 132,
		"time_elapsed": 283915,
		"internal_node_id": "0.0-5.0-0.4-0.114"
	},
	{
		"type": "toj",
		"soa": -100,
		"probe_key": "u",
		"reference_key": "v",
		"probe_element": {},
		"reference_element": {},
		"fixation_time": 700,
		"fixation_mark_html": "<img class='toj-fixation-mark absolute-position' src='./images/fixmark.png'></img>",
		"data": {
			"probeLeft": true,
			"salient": true
		},
		"response_key": "u",
		"response": "probe",
		"response_correct": true,
		"measured_soa": -101.60999999789055,
		"rt": 303.9550000030431,
		"probeLeft": true,
		"salient": true,
		"trial_type": "toj",
		"trial_index": 133,
		"time_elapsed": 285024,
		"internal_node_id": "0.0-5.0-0.4-0.115"
	},
	{
		"type": "toj",
		"soa": 0,
		"probe_key": "u",
		"reference_key": "v",
		"probe_element": {},
		"reference_element": {},
		"fixation_time": 700,
		"fixation_mark_html": "<img class='toj-fixation-mark absolute-position' src='./images/fixmark.png'></img>",
		"data": {
			"probeLeft": true,
			"salient": true
		},
		"response_key": "u",
		"response": "probe",
		"response_correct": true,
		"measured_soa": 0.08499999967170879,
		"rt": 467.08000000217,
		"probeLeft": true,
		"salient": true,
		"trial_type": "toj",
		"trial_index": 134,
		"time_elapsed": 286195,
		"internal_node_id": "0.0-5.0-0.4-0.116"
	},
	{
		"type": "toj",
		"soa": 0,
		"probe_key": "u",
		"reference_key": "v",
		"probe_element": {},
		"reference_element": {},
		"fixation_time": 700,
		"fixation_mark_html": "<img class='toj-fixation-mark absolute-position' src='./images/fixmark.png'></img>",
		"data": {
			"probeLeft": true,
			"salient": false
		},
		"response_key": "u",
		"response": "probe",
		"response_correct": true,
		"measured_soa": 0.055000004067551345,
		"rt": 441.62499999947613,
		"probeLeft": true,
		"salient": false,
		"trial_type": "toj",
		"trial_index": 135,
		"time_elapsed": 287340,
		"internal_node_id": "0.0-5.0-0.4-0.117"
	},
	{
		"type": "toj",
		"soa": -100,
		"probe_key": "v",
		"reference_key": "u",
		"probe_element": {},
		"reference_element": {},
		"fixation_time": 700,
		"fixation_mark_html": "<img class='toj-fixation-mark absolute-position' src='./images/fixmark.png'></img>",
		"data": {
			"probeLeft": false,
			"salient": false
		},
		"response_key": "v",
		"response": "probe",
		"response_correct": true,
		"measured_soa": -101.60000000178115,
		"rt": 443.1800000020303,
		"probeLeft": false,
		"salient": false,
		"trial_type": "toj",
		"trial_index": 136,
		"time_elapsed": 288588,
		"internal_node_id": "0.0-5.0-0.4-0.118"
	},
	{
		"type": "toj",
		"soa": -50,
		"probe_key": "v",
		"reference_key": "u",
		"probe_element": {},
		"reference_element": {},
		"fixation_time": 700,
		"fixation_mark_html": "<img class='toj-fixation-mark absolute-position' src='./images/fixmark.png'></img>",
		"data": {
			"probeLeft": false,
			"salient": true
		},
		"response_key": "v",
		"response": "probe",
		"response_correct": true,
		"measured_soa": -50.90000000200234,
		"rt": 582.220000003872,
		"probeLeft": false,
		"salient": true,
		"trial_type": "toj",
		"trial_index": 137,
		"time_elapsed": 289924,
		"internal_node_id": "0.0-5.0-0.4-0.119"
	},
	{
		"type": "toj",
		"soa": -50,
		"probe_key": "u",
		"reference_key": "v",
		"probe_element": {},
		"reference_element": {},
		"fixation_time": 700,
		"fixation_mark_html": "<img class='toj-fixation-mark absolute-position' src='./images/fixmark.png'></img>",
		"data": {
			"probeLeft": true,
			"salient": true
		},
		"response_key": "u",
		"response": "probe",
		"response_correct": true,
		"measured_soa": -50.56000000331551,
		"rt": 347.2399999955087,
		"probeLeft": true,
		"salient": true,
		"trial_type": "toj",
		"trial_index": 138,
		"time_elapsed": 291024,
		"internal_node_id": "0.0-5.0-0.4-0.120"
	},
	{
		"type": "toj",
		"soa": -100,
		"probe_key": "v",
		"reference_key": "u",
		"probe_element": {},
		"reference_element": {},
		"fixation_time": 700,
		"fixation_mark_html": "<img class='toj-fixation-mark absolute-position' src='./images/fixmark.png'></img>",
		"data": {
			"probeLeft": false,
			"salient": true
		},
		"response_key": "v",
		"response": "probe",
		"response_correct": true,
		"measured_soa": -101.5449999977136,
		"rt": 377.0950000034645,
		"probeLeft": false,
		"salient": true,
		"trial_type": "toj",
		"trial_index": 139,
		"time_elapsed": 292206,
		"internal_node_id": "0.0-5.0-0.4-0.121"
	},
	{
		"type": "toj",
		"soa": 0,
		"probe_key": "v",
		"reference_key": "u",
		"probe_element": {},
		"reference_element": {},
		"fixation_time": 700,
		"fixation_mark_html": "<img class='toj-fixation-mark absolute-position' src='./images/fixmark.png'></img>",
		"data": {
			"probeLeft": false,
			"salient": false
		},
		"response_key": "v",
		"response": "probe",
		"response_correct": true,
		"measured_soa": 0.05999999848427251,
		"rt": 627.5299999979325,
		"probeLeft": false,
		"salient": false,
		"trial_type": "toj",
		"trial_index": 140,
		"time_elapsed": 293537,
		"internal_node_id": "0.0-5.0-0.4-0.122"
	},
	{
		"type": "toj",
		"soa": 150,
		"probe_key": "v",
		"reference_key": "u",
		"probe_element": {},
		"reference_element": {},
		"fixation_time": 700,
		"fixation_mark_html": "<img class='toj-fixation-mark absolute-position' src='./images/fixmark.png'></img>",
		"data": {
			"probeLeft": false,
			"salient": true
		},
		"response_key": "u",
		"response": "reference",
		"response_correct": true,
		"measured_soa": 151.3699999995879,
		"rt": 281.36999999696855,
		"probeLeft": false,
		"salient": true,
		"trial_type": "toj",
		"trial_index": 141,
		"time_elapsed": 294673,
		"internal_node_id": "0.0-5.0-0.4-0.123"
	},
	{
		"type": "toj",
		"soa": 100,
		"probe_key": "v",
		"reference_key": "u",
		"probe_element": {},
		"reference_element": {},
		"fixation_time": 700,
		"fixation_mark_html": "<img class='toj-fixation-mark absolute-position' src='./images/fixmark.png'></img>",
		"data": {
			"probeLeft": false,
			"salient": false
		},
		"response_key": "u",
		"response": "reference",
		"response_correct": true,
		"measured_soa": 101.47000000142725,
		"rt": 283.12000000005355,
		"probeLeft": false,
		"salient": false,
		"trial_type": "toj",
		"trial_index": 142,
		"time_elapsed": 295761,
		"internal_node_id": "0.0-5.0-0.4-0.124"
	},
	{
		"type": "toj",
		"soa": -150,
		"probe_key": "u",
		"reference_key": "v",
		"probe_element": {},
		"reference_element": {},
		"fixation_time": 700,
		"fixation_mark_html": "<img class='toj-fixation-mark absolute-position' src='./images/fixmark.png'></img>",
		"data": {
			"probeLeft": true,
			"salient": true
		},
		"response_key": "u",
		"response": "probe",
		"response_correct": true,
		"measured_soa": -151.57499999622814,
		"rt": 263.83999999961816,
		"probeLeft": true,
		"salient": true,
		"trial_type": "toj",
		"trial_index": 143,
		"time_elapsed": 296880,
		"internal_node_id": "0.0-5.0-0.4-0.125"
	},
	{
		"type": "toj",
		"soa": 50,
		"probe_key": "u",
		"reference_key": "v",
		"probe_element": {},
		"reference_element": {},
		"fixation_time": 700,
		"fixation_mark_html": "<img class='toj-fixation-mark absolute-position' src='./images/fixmark.png'></img>",
		"data": {
			"probeLeft": true,
			"salient": true
		},
		"response_key": "v",
		"response": "reference",
		"response_correct": true,
		"measured_soa": 50.39499999838881,
		"rt": 419.73000000143657,
		"probeLeft": true,
		"salient": true,
		"trial_type": "toj",
		"trial_index": 144,
		"time_elapsed": 298052,
		"internal_node_id": "0.0-5.0-0.4-0.126"
	},
	{
		"type": "toj",
		"soa": -100,
		"probe_key": "u",
		"reference_key": "v",
		"probe_element": {},
		"reference_element": {},
		"fixation_time": 700,
		"fixation_mark_html": "<img class='toj-fixation-mark absolute-position' src='./images/fixmark.png'></img>",
		"data": {
			"probeLeft": true,
			"salient": false
		},
		"response_key": "u",
		"response": "probe",
		"response_correct": true,
		"measured_soa": -101.00999999849591,
		"rt": 329.1250000038417,
		"probeLeft": true,
		"salient": false,
		"trial_type": "toj",
		"trial_index": 145,
		"time_elapsed": 299186,
		"internal_node_id": "0.0-5.0-0.4-0.127"
	},
	{
		"type": "toj",
		"soa": 150,
		"probe_key": "v",
		"reference_key": "u",
		"probe_element": {},
		"reference_element": {},
		"fixation_time": 700,
		"fixation_mark_html": "<img class='toj-fixation-mark absolute-position' src='./images/fixmark.png'></img>",
		"data": {
			"probeLeft": false,
			"salient": false
		},
		"response_key": "u",
		"response": "reference",
		"response_correct": true,
		"measured_soa": 151.55000000231666,
		"rt": 273.3749999970314,
		"probeLeft": false,
		"salient": false,
		"trial_type": "toj",
		"trial_index": 146,
		"time_elapsed": 300314,
		"internal_node_id": "0.0-5.0-0.4-0.128"
	},
	{
		"type": "toj",
		"soa": -50,
		"probe_key": "v",
		"reference_key": "u",
		"probe_element": {},
		"reference_element": {},
		"fixation_time": 700,
		"fixation_mark_html": "<img class='toj-fixation-mark absolute-position' src='./images/fixmark.png'></img>",
		"data": {
			"probeLeft": false,
			"salient": false
		},
		"response_key": "v",
		"response": "probe",
		"response_correct": true,
		"measured_soa": -50.374999998894054,
		"rt": 387.7050000010058,
		"probeLeft": false,
		"salient": false,
		"trial_type": "toj",
		"trial_index": 147,
		"time_elapsed": 301455,
		"internal_node_id": "0.0-5.0-0.4-0.129"
	},
	{
		"type": "toj",
		"soa": 150,
		"probe_key": "u",
		"reference_key": "v",
		"probe_element": {},
		"reference_element": {},
		"fixation_time": 700,
		"fixation_mark_html": "<img class='toj-fixation-mark absolute-position' src='./images/fixmark.png'></img>",
		"data": {
			"probeLeft": true,
			"salient": false
		},
		"response_key": "v",
		"response": "reference",
		"response_correct": true,
		"measured_soa": 151.7149999999674,
		"rt": 404.2300000000978,
		"probeLeft": true,
		"salient": false,
		"trial_type": "toj",
		"trial_index": 148,
		"time_elapsed": 302714,
		"internal_node_id": "0.0-5.0-0.4-0.130"
	},
	{
		"type": "toj",
		"soa": 50,
		"probe_key": "v",
		"reference_key": "u",
		"probe_element": {},
		"reference_element": {},
		"fixation_time": 700,
		"fixation_mark_html": "<img class='toj-fixation-mark absolute-position' src='./images/fixmark.png'></img>",
		"data": {
			"probeLeft": false,
			"salient": true
		},
		"response_key": "u",
		"response": "reference",
		"response_correct": true,
		"measured_soa": 50.83000000013271,
		"rt": 642.2250000032363,
		"probeLeft": false,
		"salient": true,
		"trial_type": "toj",
		"trial_index": 149,
		"time_elapsed": 304110,
		"internal_node_id": "0.0-5.0-0.4-0.131"
	},
	{
		"type": "toj",
		"soa": 50,
		"probe_key": "v",
		"reference_key": "u",
		"probe_element": {},
		"reference_element": {},
		"fixation_time": 700,
		"fixation_mark_html": "<img class='toj-fixation-mark absolute-position' src='./images/fixmark.png'></img>",
		"data": {
			"probeLeft": false,
			"salient": false
		},
		"response_key": "u",
		"response": "reference",
		"response_correct": true,
		"measured_soa": 50.445000000763685,
		"rt": 534.4249999980093,
		"probeLeft": false,
		"salient": false,
		"trial_type": "toj",
		"trial_index": 150,
		"time_elapsed": 305399,
		"internal_node_id": "0.0-5.0-0.4-0.132"
	},
	{
		"type": "toj",
		"soa": 150,
		"probe_key": "u",
		"reference_key": "v",
		"probe_element": {},
		"reference_element": {},
		"fixation_time": 700,
		"fixation_mark_html": "<img class='toj-fixation-mark absolute-position' src='./images/fixmark.png'></img>",
		"data": {
			"probeLeft": true,
			"salient": true
		},
		"response_key": "v",
		"response": "reference",
		"response_correct": true,
		"measured_soa": 151.55000000231666,
		"rt": 389.15000000270084,
		"probeLeft": true,
		"salient": true,
		"trial_type": "toj",
		"trial_index": 151,
		"time_elapsed": 306642,
		"internal_node_id": "0.0-5.0-0.4-0.133"
	},
	{
		"type": "toj",
		"soa": -50,
		"probe_key": "u",
		"reference_key": "v",
		"probe_element": {},
		"reference_element": {},
		"fixation_time": 700,
		"fixation_mark_html": "<img class='toj-fixation-mark absolute-position' src='./images/fixmark.png'></img>",
		"data": {
			"probeLeft": true,
			"salient": false
		},
		"response_key": "u",
		"response": "probe",
		"response_correct": true,
		"measured_soa": -50.580000002810266,
		"rt": 524.1400000013527,
		"probeLeft": true,
		"salient": false,
		"trial_type": "toj",
		"trial_index": 152,
		"time_elapsed": 307920,
		"internal_node_id": "0.0-5.0-0.4-0.134"
	},
	{
		"type": "toj",
		"soa": 100,
		"probe_key": "v",
		"reference_key": "u",
		"probe_element": {},
		"reference_element": {},
		"fixation_time": 700,
		"fixation_mark_html": "<img class='toj-fixation-mark absolute-position' src='./images/fixmark.png'></img>",
		"data": {
			"probeLeft": false,
			"salient": true
		},
		"response_key": "u",
		"response": "reference",
		"response_correct": true,
		"measured_soa": 101.34000000107335,
		"rt": 431.7799999989802,
		"probeLeft": false,
		"salient": true,
		"trial_type": "toj",
		"trial_index": 153,
		"time_elapsed": 309156,
		"internal_node_id": "0.0-5.0-0.4-0.135"
	},
	{
		"type": "toj",
		"soa": 100,
		"probe_key": "u",
		"reference_key": "v",
		"probe_element": {},
		"reference_element": {},
		"fixation_time": 700,
		"fixation_mark_html": "<img class='toj-fixation-mark absolute-position' src='./images/fixmark.png'></img>",
		"data": {
			"probeLeft": true,
			"salient": false
		},
		"response_key": "v",
		"response": "reference",
		"response_correct": true,
		"measured_soa": 101.5449999977136,
		"rt": 469.15000000444707,
		"probeLeft": true,
		"salient": false,
		"trial_type": "toj",
		"trial_index": 154,
		"time_elapsed": 310429,
		"internal_node_id": "0.0-5.0-0.4-0.136"
	},
	{
		"type": "toj",
		"soa": -150,
		"probe_key": "v",
		"reference_key": "u",
		"probe_element": {},
		"reference_element": {},
		"fixation_time": 700,
		"fixation_mark_html": "<img class='toj-fixation-mark absolute-position' src='./images/fixmark.png'></img>",
		"data": {
			"probeLeft": false,
			"salient": false
		},
		"response_key": "v",
		"response": "probe",
		"response_correct": true,
		"measured_soa": -151.4750000060303,
		"rt": 384.6449999982724,
		"probeLeft": false,
		"salient": false,
		"trial_type": "toj",
		"trial_index": 155,
		"time_elapsed": 311667,
		"internal_node_id": "0.0-5.0-0.4-0.137"
	},
	{
		"type": "toj",
		"soa": 0,
		"probe_key": "v",
		"reference_key": "u",
		"probe_element": {},
		"reference_element": {},
		"fixation_time": 700,
		"fixation_mark_html": "<img class='toj-fixation-mark absolute-position' src='./images/fixmark.png'></img>",
		"data": {
			"probeLeft": false,
			"salient": true
		},
		"response_key": "u",
		"response": "reference",
		"response_correct": true,
		"measured_soa": 0.09499999578110874,
		"rt": 518.9049999971758,
		"probeLeft": false,
		"salient": true,
		"trial_type": "toj",
		"trial_index": 156,
		"time_elapsed": 312889,
		"internal_node_id": "0.0-5.0-0.4-0.138"
	},
	{
		"type": "toj",
		"soa": -150,
		"probe_key": "u",
		"reference_key": "v",
		"probe_element": {},
		"reference_element": {},
		"fixation_time": 700,
		"fixation_mark_html": "<img class='toj-fixation-mark absolute-position' src='./images/fixmark.png'></img>",
		"data": {
			"probeLeft": true,
			"salient": false
		},
		"response_key": "v",
		"response": "reference",
		"response_correct": false,
		"measured_soa": -151.39500000077533,
		"rt": 294.9549999975716,
		"probeLeft": true,
		"salient": false,
		"trial_type": "toj",
		"trial_index": 157,
		"time_elapsed": 314038,
		"internal_node_id": "0.0-5.0-0.4-0.139"
	},
	{
		"rt": 1300,
		"stimulus": "<p>This part of the experiment is finished. Press any key to save the results!</p>",
		"key_press": 32,
		"trial_type": "html-keyboard-response",
		"trial_index": 158,
		"time_elapsed": 315339,
		"internal_node_id": "0.0-5.0-1.4"
	}
]