[
	{
		"rt": 1803,
		"responses": "{\"Q0\":\"\"}",
		"userAgent": "Mozilla/5.0 (Macintosh; Intel Mac OS X 10_15_2) AppleWebKit/605.1.15 (KHTML, like Gecko) Version/13.0.4 Safari/605.1.15",
		"trial_type": "survey-text",
		"trial_index": 0,
		"time_elapsed": 1804,
		"internal_node_id": "0.0-0.0"
	},
	{
		"success": true,
		"trial_type": "fullscreen",
		"trial_index": 1,
		"time_elapsed": 8939,
		"internal_node_id": "0.0-1.0"
	},
	{
		"rt": 7648,
		"stimulus": "\n      <p style=\"text-align: center;\"><strong>Willkommen zum Experiment.</strong></p>\n      <p>Bevor Sie das Experiment fortf&uuml;hren k&ouml;nnen, fragen Sie sich, ob Sie die drei unteren Fragen bejaht beantworten k&ouml;nnen.</p>\n      <ol>\n      <li>Sind Sie in einer Umgebung, in der Sie ungest&ouml;rt f&uuml;r [X] Minuten an dem Experiment teilnehmen k&ouml;nnen?</li>\n      <li>Haben Sie elektronische Ger&auml;te, au&szlig;er das Ger&auml;t an dem Sie gerade teilnehmen, ausgeschaltet oder in den Flugmodus gestellt?</li>\n      <li>F&uuml;hlen Sie sich momentan wohl?</li>\n      </ol>\n      <p>Selbstverst&auml;ndlich ist ihnen &uuml;berlassen, das Experiement aufgrund von Unwohlseins jederzeit abzubrechen.</p>\n      <p>W&auml;hrend des Experiments wird in der Mitte des Browserfensters ein schwarzer Kreis angezeigt werden. F&uuml;r die Dauer des Experimentes fokussieren Sie diesen. Neben dem Kreis, also rechts und links, wird jeweils ein Wort eingeblendet. Nach einer gewissen Zeit blinken beide W&ouml;rter auf. Sie sollen nun entscheiden, welches Wort zuerst geblinkt hat.</p>\n      <ul style=\"list-style: none;\">\n      <li>F&uuml;r das linke Wort dr&uuml;cken Sie <strong>F</strong></li>\n      <li>F&uuml;r das rechte Wort dr&uuml;cken Sie <strong>J</strong></li>\n      </ul>\n      <p><em>Beide Tasten haben jeweils eine Einkerbung, an welcher Sie sich orientieren k&ouml;nnen.</em></p>\n    ",
		"key_press": 32,
		"trial_type": "html-keyboard-response",
		"trial_index": 2,
		"time_elapsed": 16588,
		"internal_node_id": "0.0-2.0"
	},
	{
		"type": "toj",
		"soa": 50,
		"probe_key": "f",
		"reference_key": "j",
		"probe_element": {},
		"reference_element": {},
		"fixation_time": 400,
		"fixation_mark_html": "<img class='toj-fixation-mark absolute-position' src='./images/fixmark.png'></img>",
		"data": {
			"probeLeft": true,
			"salient": true
		},
		"response_key": "f",
		"response": "probe",
		"response_correct": false,
		"measured_soa": 50,
		"rt": 2302,
		"probeLeft": true,
		"salient": true,
		"trial_type": "toj",
		"trial_index": 3,
		"time_elapsed": 19347,
		"internal_node_id": "0.0-3.0-0.0"
	},
	{
		"type": "toj",
		"soa": -100,
		"probe_key": "f",
		"reference_key": "j",
		"probe_element": {},
		"reference_element": {},
		"fixation_time": 400,
		"fixation_mark_html": "<img class='toj-fixation-mark absolute-position' src='./images/fixmark.png'></img>",
		"data": {
			"probeLeft": true,
			"salient": false
		},
		"response_key": "f",
		"response": "probe",
		"response_correct": true,
		"measured_soa": -101,
		"rt": 228.00000000000364,
		"probeLeft": true,
		"salient": false,
		"trial_type": "toj",
		"trial_index": 4,
		"time_elapsed": 20081,
		"internal_node_id": "0.0-3.0-0.1"
	},
	{
		"type": "toj",
		"soa": 100,
		"probe_key": "f",
		"reference_key": "j",
		"probe_element": {},
		"reference_element": {},
		"fixation_time": 400,
		"fixation_mark_html": "<img class='toj-fixation-mark absolute-position' src='./images/fixmark.png'></img>",
		"data": {
			"probeLeft": true,
			"salient": false
		},
		"response_key": "f",
		"response": "probe",
		"response_correct": false,
		"measured_soa": 100,
		"rt": 148,
		"probeLeft": true,
		"salient": false,
		"trial_type": "toj",
		"trial_index": 5,
		"time_elapsed": 20733,
		"internal_node_id": "0.0-3.0-0.2"
	},
	{
		"type": "toj",
		"soa": -150,
		"probe_key": "j",
		"reference_key": "f",
		"probe_element": {},
		"reference_element": {},
		"fixation_time": 400,
		"fixation_mark_html": "<img class='toj-fixation-mark absolute-position' src='./images/fixmark.png'></img>",
		"data": {
			"probeLeft": false,
			"salient": false
		},
		"response_key": "f",
		"response": "reference",
		"response_correct": false,
		"measured_soa": -151,
		"rt": 29,
		"probeLeft": false,
		"salient": false,
		"trial_type": "toj",
		"trial_index": 6,
		"time_elapsed": 21316,
		"internal_node_id": "0.0-3.0-0.3"
	},
	{
		"type": "toj",
		"soa": -50,
		"probe_key": "f",
		"reference_key": "j",
		"probe_element": {},
		"reference_element": {},
		"fixation_time": 400,
		"fixation_mark_html": "<img class='toj-fixation-mark absolute-position' src='./images/fixmark.png'></img>",
		"data": {
			"probeLeft": true,
			"salient": false
		},
		"response_key": "f",
		"response": "probe",
		"response_correct": true,
		"measured_soa": -52,
		"rt": 155,
		"probeLeft": true,
		"salient": false,
		"trial_type": "toj",
		"trial_index": 7,
		"time_elapsed": 21925,
		"internal_node_id": "0.0-3.0-0.4"
	},
	{
		"type": "toj",
		"soa": 100,
		"probe_key": "f",
		"reference_key": "j",
		"probe_element": {},
		"reference_element": {},
		"fixation_time": 400,
		"fixation_mark_html": "<img class='toj-fixation-mark absolute-position' src='./images/fixmark.png'></img>",
		"data": {
			"probeLeft": true,
			"salient": true
		},
		"response_key": "f",
		"response": "probe",
		"response_correct": false,
		"measured_soa": 101,
		"rt": 173,
		"probeLeft": true,
		"salient": true,
		"trial_type": "toj",
		"trial_index": 8,
		"time_elapsed": 22604,
		"internal_node_id": "0.0-3.0-0.5"
	},
	{
		"type": "toj",
		"soa": 0,
		"probe_key": "f",
		"reference_key": "j",
		"probe_element": {},
		"reference_element": {},
		"fixation_time": 400,
		"fixation_mark_html": "<img class='toj-fixation-mark absolute-position' src='./images/fixmark.png'></img>",
		"data": {
			"probeLeft": true,
			"salient": false
		},
		"response_key": "f",
		"response": "probe",
		"response_correct": true,
		"measured_soa": 0,
		"rt": 172.00000000000364,
		"probeLeft": true,
		"salient": false,
		"trial_type": "toj",
		"trial_index": 9,
		"time_elapsed": 23179,
		"internal_node_id": "0.0-3.0-0.6"
	},
	{
		"type": "toj",
		"soa": 50,
		"probe_key": "f",
		"reference_key": "j",
		"probe_element": {},
		"reference_element": {},
		"fixation_time": 400,
		"fixation_mark_html": "<img class='toj-fixation-mark absolute-position' src='./images/fixmark.png'></img>",
		"data": {
			"probeLeft": true,
			"salient": false
		},
		"response_key": "f",
		"response": "probe",
		"response_correct": false,
		"measured_soa": 51,
		"rt": 489,
		"probeLeft": true,
		"salient": false,
		"trial_type": "toj",
		"trial_index": 10,
		"time_elapsed": 24123,
		"internal_node_id": "0.0-3.0-0.7"
	},
	{
		"type": "toj",
		"soa": -150,
		"probe_key": "j",
		"reference_key": "f",
		"probe_element": {},
		"reference_element": {},
		"fixation_time": 400,
		"fixation_mark_html": "<img class='toj-fixation-mark absolute-position' src='./images/fixmark.png'></img>",
		"data": {
			"probeLeft": false,
			"salient": true
		},
		"response_key": "f",
		"response": "reference",
		"response_correct": false,
		"measured_soa": -151,
		"rt": 232,
		"probeLeft": false,
		"salient": true,
		"trial_type": "toj",
		"trial_index": 11,
		"time_elapsed": 24911,
		"internal_node_id": "0.0-3.0-0.8"
	},
	{
		"type": "toj",
		"soa": -50,
		"probe_key": "j",
		"reference_key": "f",
		"probe_element": {},
		"reference_element": {},
		"fixation_time": 400,
		"fixation_mark_html": "<img class='toj-fixation-mark absolute-position' src='./images/fixmark.png'></img>",
		"data": {
			"probeLeft": false,
			"salient": false
		},
		"response_key": "f",
		"response": "reference",
		"response_correct": false,
		"measured_soa": -51.00000000000364,
		"rt": 927.9999999999964,
		"probeLeft": false,
		"salient": false,
		"trial_type": "toj",
		"trial_index": 12,
		"time_elapsed": 26294,
		"internal_node_id": "0.0-3.0-0.9"
	},
	{
		"rt": 767,
		"stimulus": "<p>You finished the tutorial.</p><p>Press any key to continue.</p>",
		"key_press": 70,
		"trial_type": "html-keyboard-response",
		"trial_index": 13,
		"time_elapsed": 27061,
		"internal_node_id": "0.0-4.0"
	},
	{
		"type": "toj",
		"soa": -100,
		"probe_key": "f",
		"reference_key": "j",
		"probe_element": {},
		"reference_element": {},
		"fixation_time": 400,
		"fixation_mark_html": "<img class='toj-fixation-mark absolute-position' src='./images/fixmark.png'></img>",
		"data": {
			"probeLeft": true,
			"salient": false
		},
		"response_key": "f",
		"response": "probe",
		"response_correct": true,
		"measured_soa": -101,
		"rt": 959,
		"probeLeft": true,
		"salient": false,
		"trial_type": "toj",
		"trial_index": 14,
		"time_elapsed": 28524,
		"internal_node_id": "0.0-5.0-0.0-0.0"
	},
	{
		"type": "toj",
		"soa": 100,
		"probe_key": "j",
		"reference_key": "f",
		"probe_element": {},
		"reference_element": {},
		"fixation_time": 400,
		"fixation_mark_html": "<img class='toj-fixation-mark absolute-position' src='./images/fixmark.png'></img>",
		"data": {
			"probeLeft": false,
			"salient": false
		},
		"response_key": "f",
		"response": "reference",
		"response_correct": true,
		"measured_soa": 102,
		"rt": 2335,
		"probeLeft": false,
		"salient": false,
		"trial_type": "toj",
		"trial_index": 15,
		"time_elapsed": 31365,
		"internal_node_id": "0.0-5.0-0.0-0.1"
	},
	{
		"type": "toj",
		"soa": 100,
		"probe_key": "f",
		"reference_key": "j",
		"probe_element": {},
		"reference_element": {},
		"fixation_time": 400,
		"fixation_mark_html": "<img class='toj-fixation-mark absolute-position' src='./images/fixmark.png'></img>",
		"data": {
			"probeLeft": true,
			"salient": true
		},
		"response_key": "j",
		"response": "reference",
		"response_correct": true,
		"measured_soa": 101,
		"rt": 1951,
		"probeLeft": true,
		"salient": true,
		"trial_type": "toj",
		"trial_index": 16,
		"time_elapsed": 33821,
		"internal_node_id": "0.0-5.0-0.0-0.2"
	},
	{
		"type": "toj",
		"soa": 100,
		"probe_key": "j",
		"reference_key": "f",
		"probe_element": {},
		"reference_element": {},
		"fixation_time": 400,
		"fixation_mark_html": "<img class='toj-fixation-mark absolute-position' src='./images/fixmark.png'></img>",
		"data": {
			"probeLeft": false,
			"salient": true
		},
		"response_key": "f",
		"response": "reference",
		"response_correct": true,
		"measured_soa": 99.99999999999272,
		"rt": 1209,
		"probeLeft": false,
		"salient": true,
		"trial_type": "toj",
		"trial_index": 17,
		"time_elapsed": 35535,
		"internal_node_id": "0.0-5.0-0.0-0.3"
	},
	{
		"type": "toj",
		"soa": -50,
		"probe_key": "f",
		"reference_key": "j",
		"probe_element": {},
		"reference_element": {},
		"fixation_time": 400,
		"fixation_mark_html": "<img class='toj-fixation-mark absolute-position' src='./images/fixmark.png'></img>",
		"data": {
			"probeLeft": true,
			"salient": false
		},
		"response_key": "f",
		"response": "probe",
		"response_correct": true,
		"measured_soa": -50,
		"rt": 1208,
		"probeLeft": true,
		"salient": false,
		"trial_type": "toj",
		"trial_index": 18,
		"time_elapsed": 37196,
		"internal_node_id": "0.0-5.0-0.0-0.4"
	},
	{
		"type": "toj",
		"soa": 50,
		"probe_key": "f",
		"reference_key": "j",
		"probe_element": {},
		"reference_element": {},
		"fixation_time": 400,
		"fixation_mark_html": "<img class='toj-fixation-mark absolute-position' src='./images/fixmark.png'></img>",
		"data": {
			"probeLeft": true,
			"salient": false
		},
		"response_key": "f",
		"response": "probe",
		"response_correct": false,
		"measured_soa": 50,
		"rt": 2581,
		"probeLeft": true,
		"salient": false,
		"trial_type": "toj",
		"trial_index": 19,
		"time_elapsed": 40230,
		"internal_node_id": "0.0-5.0-0.0-0.5"
	},
	{
		"type": "toj",
		"soa": 150,
		"probe_key": "j",
		"reference_key": "f",
		"probe_element": {},
		"reference_element": {},
		"fixation_time": 400,
		"fixation_mark_html": "<img class='toj-fixation-mark absolute-position' src='./images/fixmark.png'></img>",
		"data": {
			"probeLeft": false,
			"salient": false
		},
		"response_key": "f",
		"response": "reference",
		"response_correct": true,
		"measured_soa": 152,
		"rt": 2447,
		"probeLeft": false,
		"salient": false,
		"trial_type": "toj",
		"trial_index": 20,
		"time_elapsed": 43232,
		"internal_node_id": "0.0-5.0-0.0-0.6"
	},
	{
		"type": "toj",
		"soa": 0,
		"probe_key": "j",
		"reference_key": "f",
		"probe_element": {},
		"reference_element": {},
		"fixation_time": 400,
		"fixation_mark_html": "<img class='toj-fixation-mark absolute-position' src='./images/fixmark.png'></img>",
		"data": {
			"probeLeft": false,
			"salient": false
		},
		"response_key": "f",
		"response": "reference",
		"response_correct": true,
		"measured_soa": 0,
		"rt": 2293,
		"probeLeft": false,
		"salient": false,
		"trial_type": "toj",
		"trial_index": 21,
		"time_elapsed": 45929,
		"internal_node_id": "0.0-5.0-0.0-0.7"
	},
	{
		"type": "toj",
		"soa": -150,
		"probe_key": "j",
		"reference_key": "f",
		"probe_element": {},
		"reference_element": {},
		"fixation_time": 400,
		"fixation_mark_html": "<img class='toj-fixation-mark absolute-position' src='./images/fixmark.png'></img>",
		"data": {
			"probeLeft": false,
			"salient": false
		},
		"response_key": "j",
		"response": "probe",
		"response_correct": true,
		"measured_soa": -150,
		"rt": 2686,
		"probeLeft": false,
		"salient": false,
		"trial_type": "toj",
		"trial_index": 22,
		"time_elapsed": 49169,
		"internal_node_id": "0.0-5.0-0.0-0.8"
	},
	{
		"type": "toj",
		"soa": 150,
		"probe_key": "f",
		"reference_key": "j",
		"probe_element": {},
		"reference_element": {},
		"fixation_time": 400,
		"fixation_mark_html": "<img class='toj-fixation-mark absolute-position' src='./images/fixmark.png'></img>",
		"data": {
			"probeLeft": true,
			"salient": true
		},
		"response_key": "j",
		"response": "reference",
		"response_correct": true,
		"measured_soa": 151,
		"rt": 1614,
		"probeLeft": true,
		"salient": true,
		"trial_type": "toj",
		"trial_index": 23,
		"time_elapsed": 51336,
		"internal_node_id": "0.0-5.0-0.0-0.9"
	},
	{
		"type": "toj",
		"soa": -150,
		"probe_key": "f",
		"reference_key": "j",
		"probe_element": {},
		"reference_element": {},
		"fixation_time": 400,
		"fixation_mark_html": "<img class='toj-fixation-mark absolute-position' src='./images/fixmark.png'></img>",
		"data": {
			"probeLeft": true,
			"salient": true
		},
		"response_key": "f",
		"response": "probe",
		"response_correct": true,
		"measured_soa": -151,
		"rt": 849,
		"probeLeft": true,
		"salient": true,
		"trial_type": "toj",
		"trial_index": 24,
		"time_elapsed": 52740,
		"internal_node_id": "0.0-5.0-0.0-0.10"
	},
	{
		"type": "toj",
		"soa": -100,
		"probe_key": "j",
		"reference_key": "f",
		"probe_element": {},
		"reference_element": {},
		"fixation_time": 400,
		"fixation_mark_html": "<img class='toj-fixation-mark absolute-position' src='./images/fixmark.png'></img>",
		"data": {
			"probeLeft": false,
			"salient": true
		},
		"response_key": "j",
		"response": "probe",
		"response_correct": true,
		"measured_soa": -101,
		"rt": 2239,
		"probeLeft": false,
		"salient": true,
		"trial_type": "toj",
		"trial_index": 25,
		"time_elapsed": 55484,
		"internal_node_id": "0.0-5.0-0.0-0.11"
	},
	{
		"type": "toj",
		"soa": 0,
		"probe_key": "j",
		"reference_key": "f",
		"probe_element": {},
		"reference_element": {},
		"fixation_time": 400,
		"fixation_mark_html": "<img class='toj-fixation-mark absolute-position' src='./images/fixmark.png'></img>",
		"data": {
			"probeLeft": false,
			"salient": true
		},
		"response_key": "j",
		"response": "probe",
		"response_correct": true,
		"measured_soa": 0,
		"rt": 2994,
		"probeLeft": false,
		"salient": true,
		"trial_type": "toj",
		"trial_index": 26,
		"time_elapsed": 58881,
		"internal_node_id": "0.0-5.0-0.0-0.12"
	},
	{
		"type": "toj",
		"soa": -150,
		"probe_key": "f",
		"reference_key": "j",
		"probe_element": {},
		"reference_element": {},
		"fixation_time": 400,
		"fixation_mark_html": "<img class='toj-fixation-mark absolute-position' src='./images/fixmark.png'></img>",
		"data": {
			"probeLeft": true,
			"salient": false
		},
		"response_key": "f",
		"response": "probe",
		"response_correct": true,
		"measured_soa": -151.00000000000728,
		"rt": 2449.9999999999927,
		"probeLeft": true,
		"salient": false,
		"trial_type": "toj",
		"trial_index": 27,
		"time_elapsed": 61886,
		"internal_node_id": "0.0-5.0-0.0-0.13"
	},
	{
		"type": "toj",
		"soa": -50,
		"probe_key": "j",
		"reference_key": "f",
		"probe_element": {},
		"reference_element": {},
		"fixation_time": 400,
		"fixation_mark_html": "<img class='toj-fixation-mark absolute-position' src='./images/fixmark.png'></img>",
		"data": {
			"probeLeft": false,
			"salient": true
		},
		"response_key": "j",
		"response": "probe",
		"response_correct": true,
		"measured_soa": -51,
		"rt": 1679,
		"probeLeft": false,
		"salient": true,
		"trial_type": "toj",
		"trial_index": 28,
		"time_elapsed": 64018,
		"internal_node_id": "0.0-5.0-0.0-0.14"
	},
	{
		"type": "toj",
		"soa": 50,
		"probe_key": "f",
		"reference_key": "j",
		"probe_element": {},
		"reference_element": {},
		"fixation_time": 400,
		"fixation_mark_html": "<img class='toj-fixation-mark absolute-position' src='./images/fixmark.png'></img>",
		"data": {
			"probeLeft": true,
			"salient": true
		},
		"response_key": "j",
		"response": "reference",
		"response_correct": true,
		"measured_soa": 49.999999999992724,
		"rt": 6021,
		"probeLeft": true,
		"salient": true,
		"trial_type": "toj",
		"trial_index": 29,
		"time_elapsed": 70493,
		"internal_node_id": "0.0-5.0-0.0-0.15"
	},
	{
		"type": "toj",
		"soa": 150,
		"probe_key": "j",
		"reference_key": "f",
		"probe_element": {},
		"reference_element": {},
		"fixation_time": 400,
		"fixation_mark_html": "<img class='toj-fixation-mark absolute-position' src='./images/fixmark.png'></img>",
		"data": {
			"probeLeft": false,
			"salient": true
		},
		"response_key": "f",
		"response": "reference",
		"response_correct": true,
		"measured_soa": 151,
		"rt": 2589.0000000000146,
		"probeLeft": false,
		"salient": true,
		"trial_type": "toj",
		"trial_index": 30,
		"time_elapsed": 73636,
		"internal_node_id": "0.0-5.0-0.0-0.16"
	},
	{
		"type": "toj",
		"soa": 0,
		"probe_key": "f",
		"reference_key": "j",
		"probe_element": {},
		"reference_element": {},
		"fixation_time": 400,
		"fixation_mark_html": "<img class='toj-fixation-mark absolute-position' src='./images/fixmark.png'></img>",
		"data": {
			"probeLeft": true,
			"salient": false
		},
		"response_key": "f",
		"response": "probe",
		"response_correct": true,
		"measured_soa": 0.9999999999854481,
		"rt": 3360,
		"probeLeft": true,
		"salient": false,
		"trial_type": "toj",
		"trial_index": 31,
		"time_elapsed": 77400,
		"internal_node_id": "0.0-5.0-0.0-0.17"
	},
	{
		"type": "toj",
		"soa": -50,
		"probe_key": "f",
		"reference_key": "j",
		"probe_element": {},
		"reference_element": {},
		"fixation_time": 400,
		"fixation_mark_html": "<img class='toj-fixation-mark absolute-position' src='./images/fixmark.png'></img>",
		"data": {
			"probeLeft": true,
			"salient": true
		},
		"response_key": "f",
		"response": "probe",
		"response_correct": true,
		"measured_soa": -51,
		"rt": 2019,
		"probeLeft": true,
		"salient": true,
		"trial_type": "toj",
		"trial_index": 32,
		"time_elapsed": 79873,
		"internal_node_id": "0.0-5.0-0.0-0.18"
	},
	{
		"type": "toj",
		"soa": 50,
		"probe_key": "j",
		"reference_key": "f",
		"probe_element": {},
		"reference_element": {},
		"fixation_time": 400,
		"fixation_mark_html": "<img class='toj-fixation-mark absolute-position' src='./images/fixmark.png'></img>",
		"data": {
			"probeLeft": false,
			"salient": true
		},
		"response_key": "f",
		"response": "reference",
		"response_correct": true,
		"measured_soa": 51,
		"rt": 3644,
		"probeLeft": false,
		"salient": true,
		"trial_type": "toj",
		"trial_index": 33,
		"time_elapsed": 83970,
		"internal_node_id": "0.0-5.0-0.0-0.19"
	},
	{
		"type": "toj",
		"soa": -100,
		"probe_key": "j",
		"reference_key": "f",
		"probe_element": {},
		"reference_element": {},
		"fixation_time": 400,
		"fixation_mark_html": "<img class='toj-fixation-mark absolute-position' src='./images/fixmark.png'></img>",
		"data": {
			"probeLeft": false,
			"salient": false
		},
		"response_key": "j",
		"response": "probe",
		"response_correct": true,
		"measured_soa": -101,
		"rt": 1218,
		"probeLeft": false,
		"salient": false,
		"trial_type": "toj",
		"trial_index": 34,
		"time_elapsed": 85693,
		"internal_node_id": "0.0-5.0-0.0-0.20"
	},
	{
		"type": "toj",
		"soa": 150,
		"probe_key": "f",
		"reference_key": "j",
		"probe_element": {},
		"reference_element": {},
		"fixation_time": 400,
		"fixation_mark_html": "<img class='toj-fixation-mark absolute-position' src='./images/fixmark.png'></img>",
		"data": {
			"probeLeft": true,
			"salient": false
		},
		"response_key": "j",
		"response": "reference",
		"response_correct": true,
		"measured_soa": 152,
		"rt": 1894,
		"probeLeft": true,
		"salient": false,
		"trial_type": "toj",
		"trial_index": 35,
		"time_elapsed": 88141,
		"internal_node_id": "0.0-5.0-0.0-0.21"
	},
	{
		"type": "toj",
		"soa": 0,
		"probe_key": "f",
		"reference_key": "j",
		"probe_element": {},
		"reference_element": {},
		"fixation_time": 400,
		"fixation_mark_html": "<img class='toj-fixation-mark absolute-position' src='./images/fixmark.png'></img>",
		"data": {
			"probeLeft": true,
			"salient": true
		},
		"response_key": "j",
		"response": "reference",
		"response_correct": true,
		"measured_soa": 0,
		"rt": 3839.9999999999854,
		"probeLeft": true,
		"salient": true,
		"trial_type": "toj",
		"trial_index": 36,
		"time_elapsed": 92385,
		"internal_node_id": "0.0-5.0-0.0-0.22"
	},
	{
		"type": "toj",
		"soa": 100,
		"probe_key": "f",
		"reference_key": "j",
		"probe_element": {},
		"reference_element": {},
		"fixation_time": 400,
		"fixation_mark_html": "<img class='toj-fixation-mark absolute-position' src='./images/fixmark.png'></img>",
		"data": {
			"probeLeft": true,
			"salient": false
		},
		"response_key": "f",
		"response": "probe",
		"response_correct": false,
		"measured_soa": 101.99999999998545,
		"rt": 2296,
		"probeLeft": true,
		"salient": false,
		"trial_type": "toj",
		"trial_index": 37,
		"time_elapsed": 95187,
		"internal_node_id": "0.0-5.0-0.0-0.23"
	},
	{
		"type": "toj",
		"soa": -150,
		"probe_key": "j",
		"reference_key": "f",
		"probe_element": {},
		"reference_element": {},
		"fixation_time": 400,
		"fixation_mark_html": "<img class='toj-fixation-mark absolute-position' src='./images/fixmark.png'></img>",
		"data": {
			"probeLeft": false,
			"salient": true
		},
		"response_key": "j",
		"response": "probe",
		"response_correct": true,
		"measured_soa": -152,
		"rt": 5757,
		"probeLeft": false,
		"salient": true,
		"trial_type": "toj",
		"trial_index": 38,
		"time_elapsed": 101498,
		"internal_node_id": "0.0-5.0-0.0-0.24"
	},
	{
		"type": "toj",
		"soa": -100,
		"probe_key": "f",
		"reference_key": "j",
		"probe_element": {},
		"reference_element": {},
		"fixation_time": 400,
		"fixation_mark_html": "<img class='toj-fixation-mark absolute-position' src='./images/fixmark.png'></img>",
		"data": {
			"probeLeft": true,
			"salient": true
		},
		"response_key": "f",
		"response": "probe",
		"response_correct": true,
		"measured_soa": -101,
		"rt": 1043,
		"probeLeft": true,
		"salient": true,
		"trial_type": "toj",
		"trial_index": 39,
		"time_elapsed": 103046,
		"internal_node_id": "0.0-5.0-0.0-0.25"
	},
	{
		"type": "toj",
		"soa": -50,
		"probe_key": "j",
		"reference_key": "f",
		"probe_element": {},
		"reference_element": {},
		"fixation_time": 400,
		"fixation_mark_html": "<img class='toj-fixation-mark absolute-position' src='./images/fixmark.png'></img>",
		"data": {
			"probeLeft": false,
			"salient": false
		},
		"response_key": "j",
		"response": "probe",
		"response_correct": true,
		"measured_soa": -51,
		"rt": 1239,
		"probeLeft": false,
		"salient": false,
		"trial_type": "toj",
		"trial_index": 40,
		"time_elapsed": 104739,
		"internal_node_id": "0.0-5.0-0.0-0.26"
	},
	{
		"type": "toj",
		"soa": 50,
		"probe_key": "j",
		"reference_key": "f",
		"probe_element": {},
		"reference_element": {},
		"fixation_time": 400,
		"fixation_mark_html": "<img class='toj-fixation-mark absolute-position' src='./images/fixmark.png'></img>",
		"data": {
			"probeLeft": false,
			"salient": false
		},
		"response_key": "f",
		"response": "reference",
		"response_correct": true,
		"measured_soa": 52,
		"rt": 1998,
		"probeLeft": false,
		"salient": false,
		"trial_type": "toj",
		"trial_index": 41,
		"time_elapsed": 107192,
		"internal_node_id": "0.0-5.0-0.0-0.27"
	},
	{
		"rt": 7041,
		"stimulus": "<p>You finished block 1 of 5.<p/><p>Press any key to continue.</p>",
		"key_press": 74,
		"trial_type": "html-keyboard-response",
		"trial_index": 42,
		"time_elapsed": 114234,
		"internal_node_id": "0.0-5.0-1.0"
	},
	{
		"type": "toj",
		"soa": -50,
		"probe_key": "j",
		"reference_key": "f",
		"probe_element": {},
		"reference_element": {},
		"fixation_time": 400,
		"fixation_mark_html": "<img class='toj-fixation-mark absolute-position' src='./images/fixmark.png'></img>",
		"data": {
			"probeLeft": false,
			"salient": true
		},
		"response_key": "j",
		"response": "probe",
		"response_correct": true,
		"measured_soa": -51,
		"rt": 2821,
		"probeLeft": false,
		"salient": true,
		"trial_type": "toj",
		"trial_index": 43,
		"time_elapsed": 117509,
		"internal_node_id": "0.0-5.0-0.1-0.28"
	},
	{
		"type": "toj",
		"soa": -150,
		"probe_key": "f",
		"reference_key": "j",
		"probe_element": {},
		"reference_element": {},
		"fixation_time": 400,
		"fixation_mark_html": "<img class='toj-fixation-mark absolute-position' src='./images/fixmark.png'></img>",
		"data": {
			"probeLeft": true,
			"salient": true
		},
		"response_key": "f",
		"response": "probe",
		"response_correct": true,
		"measured_soa": -150.99999999998545,
		"rt": 1047,
		"probeLeft": true,
		"salient": true,
		"trial_type": "toj",
		"trial_index": 44,
		"time_elapsed": 119110,
		"internal_node_id": "0.0-5.0-0.1-0.29"
	},
	{
		"type": "toj",
		"soa": -150,
		"probe_key": "j",
		"reference_key": "f",
		"probe_element": {},
		"reference_element": {},
		"fixation_time": 400,
		"fixation_mark_html": "<img class='toj-fixation-mark absolute-position' src='./images/fixmark.png'></img>",
		"data": {
			"probeLeft": false,
			"salient": false
		},
		"response_key": "j",
		"response": "probe",
		"response_correct": true,
		"measured_soa": -150.99999999998545,
		"rt": 980.0000000000146,
		"probeLeft": false,
		"salient": false,
		"trial_type": "toj",
		"trial_index": 45,
		"time_elapsed": 120644,
		"internal_node_id": "0.0-5.0-0.1-0.30"
	},
	{
		"type": "toj",
		"soa": 100,
		"probe_key": "j",
		"reference_key": "f",
		"probe_element": {},
		"reference_element": {},
		"fixation_time": 400,
		"fixation_mark_html": "<img class='toj-fixation-mark absolute-position' src='./images/fixmark.png'></img>",
		"data": {
			"probeLeft": false,
			"salient": true
		},
		"response_key": "f",
		"response": "reference",
		"response_correct": true,
		"measured_soa": 101,
		"rt": 3517,
		"probeLeft": false,
		"salient": true,
		"trial_type": "toj",
		"trial_index": 46,
		"time_elapsed": 124666,
		"internal_node_id": "0.0-5.0-0.1-0.31"
	},
	{
		"type": "toj",
		"soa": 100,
		"probe_key": "j",
		"reference_key": "f",
		"probe_element": {},
		"reference_element": {},
		"fixation_time": 400,
		"fixation_mark_html": "<img class='toj-fixation-mark absolute-position' src='./images/fixmark.png'></img>",
		"data": {
			"probeLeft": false,
			"salient": false
		},
		"response_key": "f",
		"response": "reference",
		"response_correct": true,
		"measured_soa": 99.99999999998545,
		"rt": 1589,
		"probeLeft": false,
		"salient": false,
		"trial_type": "toj",
		"trial_index": 47,
		"time_elapsed": 126759,
		"internal_node_id": "0.0-5.0-0.1-0.32"
	},
	{
		"type": "toj",
		"soa": 150,
		"probe_key": "f",
		"reference_key": "j",
		"probe_element": {},
		"reference_element": {},
		"fixation_time": 400,
		"fixation_mark_html": "<img class='toj-fixation-mark absolute-position' src='./images/fixmark.png'></img>",
		"data": {
			"probeLeft": true,
			"salient": true
		},
		"response_key": "j",
		"response": "reference",
		"response_correct": true,
		"measured_soa": 151,
		"rt": 3767,
		"probeLeft": true,
		"salient": true,
		"trial_type": "toj",
		"trial_index": 48,
		"time_elapsed": 131082,
		"internal_node_id": "0.0-5.0-0.1-0.33"
	},
	{
		"type": "toj",
		"soa": 100,
		"probe_key": "f",
		"reference_key": "j",
		"probe_element": {},
		"reference_element": {},
		"fixation_time": 400,
		"fixation_mark_html": "<img class='toj-fixation-mark absolute-position' src='./images/fixmark.png'></img>",
		"data": {
			"probeLeft": true,
			"salient": false
		},
		"response_key": "j",
		"response": "reference",
		"response_correct": true,
		"measured_soa": 102,
		"rt": 2471,
		"probeLeft": true,
		"salient": false,
		"trial_type": "toj",
		"trial_index": 49,
		"time_elapsed": 134059,
		"internal_node_id": "0.0-5.0-0.1-0.34"
	},
	{
		"type": "toj",
		"soa": 50,
		"probe_key": "j",
		"reference_key": "f",
		"probe_element": {},
		"reference_element": {},
		"fixation_time": 400,
		"fixation_mark_html": "<img class='toj-fixation-mark absolute-position' src='./images/fixmark.png'></img>",
		"data": {
			"probeLeft": false,
			"salient": false
		},
		"response_key": "f",
		"response": "reference",
		"response_correct": true,
		"measured_soa": 51,
		"rt": 2895,
		"probeLeft": false,
		"salient": false,
		"trial_type": "toj",
		"trial_index": 50,
		"time_elapsed": 137410,
		"internal_node_id": "0.0-5.0-0.1-0.35"
	},
	{
		"type": "toj",
		"soa": 0,
		"probe_key": "f",
		"reference_key": "j",
		"probe_element": {},
		"reference_element": {},
		"fixation_time": 400,
		"fixation_mark_html": "<img class='toj-fixation-mark absolute-position' src='./images/fixmark.png'></img>",
		"data": {
			"probeLeft": true,
			"salient": true
		},
		"response_key": "f",
		"response": "probe",
		"response_correct": true,
		"measured_soa": 1,
		"rt": 3282,
		"probeLeft": true,
		"salient": true,
		"trial_type": "toj",
		"trial_index": 51,
		"time_elapsed": 141095,
		"internal_node_id": "0.0-5.0-0.1-0.36"
	},
	{
		"type": "toj",
		"soa": -150,
		"probe_key": "j",
		"reference_key": "f",
		"probe_element": {},
		"reference_element": {},
		"fixation_time": 400,
		"fixation_mark_html": "<img class='toj-fixation-mark absolute-position' src='./images/fixmark.png'></img>",
		"data": {
			"probeLeft": false,
			"salient": true
		},
		"response_key": "j",
		"response": "probe",
		"response_correct": true,
		"measured_soa": -151,
		"rt": 1206,
		"probeLeft": false,
		"salient": true,
		"trial_type": "toj",
		"trial_index": 52,
		"time_elapsed": 142856,
		"internal_node_id": "0.0-5.0-0.1-0.37"
	},
	{
		"type": "toj",
		"soa": -100,
		"probe_key": "f",
		"reference_key": "j",
		"probe_element": {},
		"reference_element": {},
		"fixation_time": 400,
		"fixation_mark_html": "<img class='toj-fixation-mark absolute-position' src='./images/fixmark.png'></img>",
		"data": {
			"probeLeft": true,
			"salient": true
		},
		"response_key": "f",
		"response": "probe",
		"response_correct": true,
		"measured_soa": -99.9999999999709,
		"rt": 911,
		"probeLeft": true,
		"salient": true,
		"trial_type": "toj",
		"trial_index": 53,
		"time_elapsed": 144270,
		"internal_node_id": "0.0-5.0-0.1-0.38"
	},
	{
		"type": "toj",
		"soa": -50,
		"probe_key": "f",
		"reference_key": "j",
		"probe_element": {},
		"reference_element": {},
		"fixation_time": 400,
		"fixation_mark_html": "<img class='toj-fixation-mark absolute-position' src='./images/fixmark.png'></img>",
		"data": {
			"probeLeft": true,
			"salient": false
		},
		"response_key": "f",
		"response": "probe",
		"response_correct": true,
		"measured_soa": -51,
		"rt": 3000,
		"probeLeft": true,
		"salient": false,
		"trial_type": "toj",
		"trial_index": 54,
		"time_elapsed": 147726,
		"internal_node_id": "0.0-5.0-0.1-0.39"
	},
	{
		"type": "toj",
		"soa": -100,
		"probe_key": "f",
		"reference_key": "j",
		"probe_element": {},
		"reference_element": {},
		"fixation_time": 400,
		"fixation_mark_html": "<img class='toj-fixation-mark absolute-position' src='./images/fixmark.png'></img>",
		"data": {
			"probeLeft": true,
			"salient": false
		},
		"response_key": "f",
		"response": "probe",
		"response_correct": true,
		"measured_soa": -101.9999999999709,
		"rt": 4490,
		"probeLeft": true,
		"salient": false,
		"trial_type": "toj",
		"trial_index": 55,
		"time_elapsed": 152722,
		"internal_node_id": "0.0-5.0-0.1-0.40"
	},
	{
		"type": "toj",
		"soa": 50,
		"probe_key": "j",
		"reference_key": "f",
		"probe_element": {},
		"reference_element": {},
		"fixation_time": 400,
		"fixation_mark_html": "<img class='toj-fixation-mark absolute-position' src='./images/fixmark.png'></img>",
		"data": {
			"probeLeft": false,
			"salient": true
		},
		"response_key": "f",
		"response": "reference",
		"response_correct": true,
		"measured_soa": 52,
		"rt": 6204,
		"probeLeft": false,
		"salient": true,
		"trial_type": "toj",
		"trial_index": 56,
		"time_elapsed": 159382,
		"internal_node_id": "0.0-5.0-0.1-0.41"
	},
	{
		"type": "toj",
		"soa": 150,
		"probe_key": "f",
		"reference_key": "j",
		"probe_element": {},
		"reference_element": {},
		"fixation_time": 400,
		"fixation_mark_html": "<img class='toj-fixation-mark absolute-position' src='./images/fixmark.png'></img>",
		"data": {
			"probeLeft": true,
			"salient": false
		},
		"response_key": "j",
		"response": "reference",
		"response_correct": true,
		"measured_soa": 152,
		"rt": 2142,
		"probeLeft": true,
		"salient": false,
		"trial_type": "toj",
		"trial_index": 57,
		"time_elapsed": 162079,
		"internal_node_id": "0.0-5.0-0.1-0.42"
	},
	{
		"type": "toj",
		"soa": -100,
		"probe_key": "j",
		"reference_key": "f",
		"probe_element": {},
		"reference_element": {},
		"fixation_time": 400,
		"fixation_mark_html": "<img class='toj-fixation-mark absolute-position' src='./images/fixmark.png'></img>",
		"data": {
			"probeLeft": false,
			"salient": true
		},
		"response_key": "j",
		"response": "probe",
		"response_correct": true,
		"measured_soa": -102,
		"rt": 1076,
		"probeLeft": false,
		"salient": true,
		"trial_type": "toj",
		"trial_index": 58,
		"time_elapsed": 163661,
		"internal_node_id": "0.0-5.0-0.1-0.43"
	},
	{
		"type": "toj",
		"soa": 0,
		"probe_key": "f",
		"reference_key": "j",
		"probe_element": {},
		"reference_element": {},
		"fixation_time": 400,
		"fixation_mark_html": "<img class='toj-fixation-mark absolute-position' src='./images/fixmark.png'></img>",
		"data": {
			"probeLeft": true,
			"salient": false
		},
		"response_key": "j",
		"response": "reference",
		"response_correct": true,
		"measured_soa": 0,
		"rt": 4055,
		"probeLeft": true,
		"salient": false,
		"trial_type": "toj",
		"trial_index": 59,
		"time_elapsed": 168119,
		"internal_node_id": "0.0-5.0-0.1-0.44"
	},
	{
		"type": "toj",
		"soa": -100,
		"probe_key": "j",
		"reference_key": "f",
		"probe_element": {},
		"reference_element": {},
		"fixation_time": 400,
		"fixation_mark_html": "<img class='toj-fixation-mark absolute-position' src='./images/fixmark.png'></img>",
		"data": {
			"probeLeft": false,
			"salient": false
		},
		"response_key": "f",
		"response": "reference",
		"response_correct": false,
		"measured_soa": -101,
		"rt": 6235.999999999971,
		"probeLeft": false,
		"salient": false,
		"trial_type": "toj",
		"trial_index": 60,
		"time_elapsed": 174859,
		"internal_node_id": "0.0-5.0-0.1-0.45"
	},
	{
		"type": "toj",
		"soa": 150,
		"probe_key": "j",
		"reference_key": "f",
		"probe_element": {},
		"reference_element": {},
		"fixation_time": 400,
		"fixation_mark_html": "<img class='toj-fixation-mark absolute-position' src='./images/fixmark.png'></img>",
		"data": {
			"probeLeft": false,
			"salient": true
		},
		"response_key": "f",
		"response": "reference",
		"response_correct": true,
		"measured_soa": 152,
		"rt": 2081,
		"probeLeft": false,
		"salient": true,
		"trial_type": "toj",
		"trial_index": 61,
		"time_elapsed": 177495,
		"internal_node_id": "0.0-5.0-0.1-0.46"
	},
	{
		"type": "toj",
		"soa": 150,
		"probe_key": "j",
		"reference_key": "f",
		"probe_element": {},
		"reference_element": {},
		"fixation_time": 400,
		"fixation_mark_html": "<img class='toj-fixation-mark absolute-position' src='./images/fixmark.png'></img>",
		"data": {
			"probeLeft": false,
			"salient": false
		},
		"response_key": "f",
		"response": "reference",
		"response_correct": true,
		"measured_soa": 152,
		"rt": 2360,
		"probeLeft": false,
		"salient": false,
		"trial_type": "toj",
		"trial_index": 62,
		"time_elapsed": 180410,
		"internal_node_id": "0.0-5.0-0.1-0.47"
	},
	{
		"type": "toj",
		"soa": -150,
		"probe_key": "f",
		"reference_key": "j",
		"probe_element": {},
		"reference_element": {},
		"fixation_time": 400,
		"fixation_mark_html": "<img class='toj-fixation-mark absolute-position' src='./images/fixmark.png'></img>",
		"data": {
			"probeLeft": true,
			"salient": false
		},
		"response_key": "f",
		"response": "probe",
		"response_correct": true,
		"measured_soa": -152,
		"rt": 1440,
		"probeLeft": true,
		"salient": false,
		"trial_type": "toj",
		"trial_index": 63,
		"time_elapsed": 182406,
		"internal_node_id": "0.0-5.0-0.1-0.48"
	},
	{
		"type": "toj",
		"soa": -50,
		"probe_key": "f",
		"reference_key": "j",
		"probe_element": {},
		"reference_element": {},
		"fixation_time": 400,
		"fixation_mark_html": "<img class='toj-fixation-mark absolute-position' src='./images/fixmark.png'></img>",
		"data": {
			"probeLeft": true,
			"salient": true
		},
		"response_key": "f",
		"response": "probe",
		"response_correct": true,
		"measured_soa": -52,
		"rt": 1980,
		"probeLeft": true,
		"salient": true,
		"trial_type": "toj",
		"trial_index": 64,
		"time_elapsed": 184841,
		"internal_node_id": "0.0-5.0-0.1-0.49"
	},
	{
		"type": "toj",
		"soa": -50,
		"probe_key": "j",
		"reference_key": "f",
		"probe_element": {},
		"reference_element": {},
		"fixation_time": 400,
		"fixation_mark_html": "<img class='toj-fixation-mark absolute-position' src='./images/fixmark.png'></img>",
		"data": {
			"probeLeft": false,
			"salient": false
		},
		"response_key": "j",
		"response": "probe",
		"response_correct": true,
		"measured_soa": -51,
		"rt": 1322,
		"probeLeft": false,
		"salient": false,
		"trial_type": "toj",
		"trial_index": 65,
		"time_elapsed": 186617,
		"internal_node_id": "0.0-5.0-0.1-0.50"
	},
	{
		"type": "toj",
		"soa": 0,
		"probe_key": "j",
		"reference_key": "f",
		"probe_element": {},
		"reference_element": {},
		"fixation_time": 400,
		"fixation_mark_html": "<img class='toj-fixation-mark absolute-position' src='./images/fixmark.png'></img>",
		"data": {
			"probeLeft": false,
			"salient": true
		},
		"response_key": "j",
		"response": "probe",
		"response_correct": true,
		"measured_soa": 0,
		"rt": 4503,
		"probeLeft": false,
		"salient": true,
		"trial_type": "toj",
		"trial_index": 66,
		"time_elapsed": 191522,
		"internal_node_id": "0.0-5.0-0.1-0.51"
	},
	{
		"type": "toj",
		"soa": 50,
		"probe_key": "f",
		"reference_key": "j",
		"probe_element": {},
		"reference_element": {},
		"fixation_time": 400,
		"fixation_mark_html": "<img class='toj-fixation-mark absolute-position' src='./images/fixmark.png'></img>",
		"data": {
			"probeLeft": true,
			"salient": true
		},
		"response_key": "j",
		"response": "reference",
		"response_correct": true,
		"measured_soa": 52,
		"rt": 2265,
		"probeLeft": true,
		"salient": true,
		"trial_type": "toj",
		"trial_index": 67,
		"time_elapsed": 194241,
		"internal_node_id": "0.0-5.0-0.1-0.52"
	},
	{
		"type": "toj",
		"soa": 0,
		"probe_key": "j",
		"reference_key": "f",
		"probe_element": {},
		"reference_element": {},
		"fixation_time": 400,
		"fixation_mark_html": "<img class='toj-fixation-mark absolute-position' src='./images/fixmark.png'></img>",
		"data": {
			"probeLeft": false,
			"salient": false
		},
		"response_key": "f",
		"response": "reference",
		"response_correct": true,
		"measured_soa": 0,
		"rt": 2674,
		"probeLeft": false,
		"salient": false,
		"trial_type": "toj",
		"trial_index": 68,
		"time_elapsed": 197318,
		"internal_node_id": "0.0-5.0-0.1-0.53"
	},
	{
		"type": "toj",
		"soa": 50,
		"probe_key": "f",
		"reference_key": "j",
		"probe_element": {},
		"reference_element": {},
		"fixation_time": 400,
		"fixation_mark_html": "<img class='toj-fixation-mark absolute-position' src='./images/fixmark.png'></img>",
		"data": {
			"probeLeft": true,
			"salient": false
		},
		"response_key": "j",
		"response": "reference",
		"response_correct": true,
		"measured_soa": 52.000000000029104,
		"rt": 3272.999999999971,
		"probeLeft": true,
		"salient": false,
		"trial_type": "toj",
		"trial_index": 69,
		"time_elapsed": 201046,
		"internal_node_id": "0.0-5.0-0.1-0.54"
	},
	{
		"type": "toj",
		"soa": 100,
		"probe_key": "f",
		"reference_key": "j",
		"probe_element": {},
		"reference_element": {},
		"fixation_time": 400,
		"fixation_mark_html": "<img class='toj-fixation-mark absolute-position' src='./images/fixmark.png'></img>",
		"data": {
			"probeLeft": true,
			"salient": true
		},
		"response_key": "j",
		"response": "reference",
		"response_correct": true,
		"measured_soa": 101,
		"rt": 1162.000000000029,
		"probeLeft": true,
		"salient": true,
		"trial_type": "toj",
		"trial_index": 70,
		"time_elapsed": 202714,
		"internal_node_id": "0.0-5.0-0.1-0.55"
	},
	{
		"rt": 11062,
		"stimulus": "<p>You finished block 2 of 5.<p/><p>Press any key to continue.</p>",
		"key_press": 74,
		"trial_type": "html-keyboard-response",
		"trial_index": 71,
		"time_elapsed": 213776,
		"internal_node_id": "0.0-5.0-1.1"
	},
	{
		"type": "toj",
		"soa": 0,
		"probe_key": "f",
		"reference_key": "j",
		"probe_element": {},
		"reference_element": {},
		"fixation_time": 400,
		"fixation_mark_html": "<img class='toj-fixation-mark absolute-position' src='./images/fixmark.png'></img>",
		"data": {
			"probeLeft": true,
			"salient": true
		},
		"response_key": "f",
		"response": "probe",
		"response_correct": true,
		"measured_soa": 0,
		"rt": 1845,
		"probeLeft": true,
		"salient": true,
		"trial_type": "toj",
		"trial_index": 72,
		"time_elapsed": 216024,
		"internal_node_id": "0.0-5.0-0.2-0.56"
	},
	{
		"type": "toj",
		"soa": 50,
		"probe_key": "j",
		"reference_key": "f",
		"probe_element": {},
		"reference_element": {},
		"fixation_time": 400,
		"fixation_mark_html": "<img class='toj-fixation-mark absolute-position' src='./images/fixmark.png'></img>",
		"data": {
			"probeLeft": false,
			"salient": true
		},
		"response_key": "f",
		"response": "reference",
		"response_correct": true,
		"measured_soa": 52,
		"rt": 1422,
		"probeLeft": false,
		"salient": true,
		"trial_type": "toj",
		"trial_index": 73,
		"time_elapsed": 217900,
		"internal_node_id": "0.0-5.0-0.2-0.57"
	},
	{
		"type": "toj",
		"soa": -50,
		"probe_key": "f",
		"reference_key": "j",
		"probe_element": {},
		"reference_element": {},
		"fixation_time": 400,
		"fixation_mark_html": "<img class='toj-fixation-mark absolute-position' src='./images/fixmark.png'></img>",
		"data": {
			"probeLeft": true,
			"salient": false
		},
		"response_key": "f",
		"response": "probe",
		"response_correct": true,
		"measured_soa": -50.999999999970896,
		"rt": 1259,
		"probeLeft": true,
		"salient": false,
		"trial_type": "toj",
		"trial_index": 74,
		"time_elapsed": 219613,
		"internal_node_id": "0.0-5.0-0.2-0.58"
	},
	{
		"type": "toj",
		"soa": -50,
		"probe_key": "j",
		"reference_key": "f",
		"probe_element": {},
		"reference_element": {},
		"fixation_time": 400,
		"fixation_mark_html": "<img class='toj-fixation-mark absolute-position' src='./images/fixmark.png'></img>",
		"data": {
			"probeLeft": false,
			"salient": false
		},
		"response_key": "j",
		"response": "probe",
		"response_correct": true,
		"measured_soa": -51,
		"rt": 1942,
		"probeLeft": false,
		"salient": false,
		"trial_type": "toj",
		"trial_index": 75,
		"time_elapsed": 222008,
		"internal_node_id": "0.0-5.0-0.2-0.59"
	},
	{
		"type": "toj",
		"soa": 150,
		"probe_key": "j",
		"reference_key": "f",
		"probe_element": {},
		"reference_element": {},
		"fixation_time": 400,
		"fixation_mark_html": "<img class='toj-fixation-mark absolute-position' src='./images/fixmark.png'></img>",
		"data": {
			"probeLeft": false,
			"salient": false
		},
		"response_key": "j",
		"response": "probe",
		"response_correct": false,
		"measured_soa": 151.9999999999709,
		"rt": 5757,
		"probeLeft": false,
		"salient": false,
		"trial_type": "toj",
		"trial_index": 76,
		"time_elapsed": 228320,
		"internal_node_id": "0.0-5.0-0.2-0.60"
	},
	{
		"type": "toj",
		"soa": -50,
		"probe_key": "f",
		"reference_key": "j",
		"probe_element": {},
		"reference_element": {},
		"fixation_time": 400,
		"fixation_mark_html": "<img class='toj-fixation-mark absolute-position' src='./images/fixmark.png'></img>",
		"data": {
			"probeLeft": true,
			"salient": true
		},
		"response_key": "f",
		"response": "probe",
		"response_correct": true,
		"measured_soa": -51.000000000029104,
		"rt": 2004.999999999971,
		"probeLeft": true,
		"salient": true,
		"trial_type": "toj",
		"trial_index": 77,
		"time_elapsed": 230779,
		"internal_node_id": "0.0-5.0-0.2-0.61"
	},
	{
		"type": "toj",
		"soa": 150,
		"probe_key": "f",
		"reference_key": "j",
		"probe_element": {},
		"reference_element": {},
		"fixation_time": 400,
		"fixation_mark_html": "<img class='toj-fixation-mark absolute-position' src='./images/fixmark.png'></img>",
		"data": {
			"probeLeft": true,
			"salient": true
		},
		"response_key": "j",
		"response": "reference",
		"response_correct": true,
		"measured_soa": 151,
		"rt": 968,
		"probeLeft": true,
		"salient": true,
		"trial_type": "toj",
		"trial_index": 78,
		"time_elapsed": 232302,
		"internal_node_id": "0.0-5.0-0.2-0.62"
	},
	{
		"type": "toj",
		"soa": -100,
		"probe_key": "f",
		"reference_key": "j",
		"probe_element": {},
		"reference_element": {},
		"fixation_time": 400,
		"fixation_mark_html": "<img class='toj-fixation-mark absolute-position' src='./images/fixmark.png'></img>",
		"data": {
			"probeLeft": true,
			"salient": false
		},
		"response_key": "f",
		"response": "probe",
		"response_correct": true,
		"measured_soa": -101,
		"rt": 1198,
		"probeLeft": true,
		"salient": false,
		"trial_type": "toj",
		"trial_index": 79,
		"time_elapsed": 234004,
		"internal_node_id": "0.0-5.0-0.2-0.63"
	},
	{
		"type": "toj",
		"soa": 0,
		"probe_key": "j",
		"reference_key": "f",
		"probe_element": {},
		"reference_element": {},
		"fixation_time": 400,
		"fixation_mark_html": "<img class='toj-fixation-mark absolute-position' src='./images/fixmark.png'></img>",
		"data": {
			"probeLeft": false,
			"salient": false
		},
		"response_key": "j",
		"response": "probe",
		"response_correct": true,
		"measured_soa": 0,
		"rt": 5804,
		"probeLeft": false,
		"salient": false,
		"trial_type": "toj",
		"trial_index": 80,
		"time_elapsed": 240211,
		"internal_node_id": "0.0-5.0-0.2-0.64"
	},
	{
		"type": "toj",
		"soa": 50,
		"probe_key": "f",
		"reference_key": "j",
		"probe_element": {},
		"reference_element": {},
		"fixation_time": 400,
		"fixation_mark_html": "<img class='toj-fixation-mark absolute-position' src='./images/fixmark.png'></img>",
		"data": {
			"probeLeft": true,
			"salient": true
		},
		"response_key": "j",
		"response": "reference",
		"response_correct": true,
		"measured_soa": 49.999999999970896,
		"rt": 1281,
		"probeLeft": true,
		"salient": true,
		"trial_type": "toj",
		"trial_index": 81,
		"time_elapsed": 241944,
		"internal_node_id": "0.0-5.0-0.2-0.65"
	},
	{
		"type": "toj",
		"soa": 150,
		"probe_key": "f",
		"reference_key": "j",
		"probe_element": {},
		"reference_element": {},
		"fixation_time": 400,
		"fixation_mark_html": "<img class='toj-fixation-mark absolute-position' src='./images/fixmark.png'></img>",
		"data": {
			"probeLeft": true,
			"salient": false
		},
		"response_key": "j",
		"response": "reference",
		"response_correct": true,
		"measured_soa": 152,
		"rt": 756,
		"probeLeft": true,
		"salient": false,
		"trial_type": "toj",
		"trial_index": 82,
		"time_elapsed": 243255,
		"internal_node_id": "0.0-5.0-0.2-0.66"
	},
	{
		"type": "toj",
		"soa": 100,
		"probe_key": "f",
		"reference_key": "j",
		"probe_element": {},
		"reference_element": {},
		"fixation_time": 400,
		"fixation_mark_html": "<img class='toj-fixation-mark absolute-position' src='./images/fixmark.png'></img>",
		"data": {
			"probeLeft": true,
			"salient": true
		},
		"response_key": "j",
		"response": "reference",
		"response_correct": true,
		"measured_soa": 102,
		"rt": 599,
		"probeLeft": true,
		"salient": true,
		"trial_type": "toj",
		"trial_index": 83,
		"time_elapsed": 244360,
		"internal_node_id": "0.0-5.0-0.2-0.67"
	},
	{
		"type": "toj",
		"soa": 0,
		"probe_key": "f",
		"reference_key": "j",
		"probe_element": {},
		"reference_element": {},
		"fixation_time": 400,
		"fixation_mark_html": "<img class='toj-fixation-mark absolute-position' src='./images/fixmark.png'></img>",
		"data": {
			"probeLeft": true,
			"salient": false
		},
		"response_key": "f",
		"response": "probe",
		"response_correct": true,
		"measured_soa": 0,
		"rt": 2323,
		"probeLeft": true,
		"salient": false,
		"trial_type": "toj",
		"trial_index": 84,
		"time_elapsed": 247087,
		"internal_node_id": "0.0-5.0-0.2-0.68"
	},
	{
		"type": "toj",
		"soa": -50,
		"probe_key": "j",
		"reference_key": "f",
		"probe_element": {},
		"reference_element": {},
		"fixation_time": 400,
		"fixation_mark_html": "<img class='toj-fixation-mark absolute-position' src='./images/fixmark.png'></img>",
		"data": {
			"probeLeft": false,
			"salient": true
		},
		"response_key": "j",
		"response": "probe",
		"response_correct": true,
		"measured_soa": -51,
		"rt": 4767,
		"probeLeft": false,
		"salient": true,
		"trial_type": "toj",
		"trial_index": 85,
		"time_elapsed": 252308,
		"internal_node_id": "0.0-5.0-0.2-0.69"
	},
	{
		"type": "toj",
		"soa": 150,
		"probe_key": "j",
		"reference_key": "f",
		"probe_element": {},
		"reference_element": {},
		"fixation_time": 400,
		"fixation_mark_html": "<img class='toj-fixation-mark absolute-position' src='./images/fixmark.png'></img>",
		"data": {
			"probeLeft": false,
			"salient": true
		},
		"response_key": "f",
		"response": "reference",
		"response_correct": true,
		"measured_soa": 152,
		"rt": 2444,
		"probeLeft": false,
		"salient": true,
		"trial_type": "toj",
		"trial_index": 86,
		"time_elapsed": 255307,
		"internal_node_id": "0.0-5.0-0.2-0.70"
	},
	{
		"type": "toj",
		"soa": 100,
		"probe_key": "f",
		"reference_key": "j",
		"probe_element": {},
		"reference_element": {},
		"fixation_time": 400,
		"fixation_mark_html": "<img class='toj-fixation-mark absolute-position' src='./images/fixmark.png'></img>",
		"data": {
			"probeLeft": true,
			"salient": false
		},
		"response_key": "j",
		"response": "reference",
		"response_correct": true,
		"measured_soa": 100.0000000000291,
		"rt": 6755.999999999971,
		"probeLeft": true,
		"salient": false,
		"trial_type": "toj",
		"trial_index": 87,
		"time_elapsed": 262567,
		"internal_node_id": "0.0-5.0-0.2-0.71"
	},
	{
		"type": "toj",
		"soa": -150,
		"probe_key": "j",
		"reference_key": "f",
		"probe_element": {},
		"reference_element": {},
		"fixation_time": 400,
		"fixation_mark_html": "<img class='toj-fixation-mark absolute-position' src='./images/fixmark.png'></img>",
		"data": {
			"probeLeft": false,
			"salient": true
		},
		"response_key": "j",
		"response": "probe",
		"response_correct": true,
		"measured_soa": -151,
		"rt": 1760,
		"probeLeft": false,
		"salient": true,
		"trial_type": "toj",
		"trial_index": 88,
		"time_elapsed": 264882,
		"internal_node_id": "0.0-5.0-0.2-0.72"
	},
	{
		"type": "toj",
		"soa": -150,
		"probe_key": "f",
		"reference_key": "j",
		"probe_element": {},
		"reference_element": {},
		"fixation_time": 400,
		"fixation_mark_html": "<img class='toj-fixation-mark absolute-position' src='./images/fixmark.png'></img>",
		"data": {
			"probeLeft": true,
			"salient": false
		},
		"response_key": "f",
		"response": "probe",
		"response_correct": true,
		"measured_soa": -151,
		"rt": 1910,
		"probeLeft": true,
		"salient": false,
		"trial_type": "toj",
		"trial_index": 89,
		"time_elapsed": 267347,
		"internal_node_id": "0.0-5.0-0.2-0.73"
	},
	{
		"type": "toj",
		"soa": 100,
		"probe_key": "j",
		"reference_key": "f",
		"probe_element": {},
		"reference_element": {},
		"fixation_time": 400,
		"fixation_mark_html": "<img class='toj-fixation-mark absolute-position' src='./images/fixmark.png'></img>",
		"data": {
			"probeLeft": false,
			"salient": true
		},
		"response_key": "j",
		"response": "probe",
		"response_correct": false,
		"measured_soa": 101,
		"rt": 4919,
		"probeLeft": false,
		"salient": true,
		"trial_type": "toj",
		"trial_index": 90,
		"time_elapsed": 272771,
		"internal_node_id": "0.0-5.0-0.2-0.74"
	},
	{
		"type": "toj",
		"soa": 50,
		"probe_key": "j",
		"reference_key": "f",
		"probe_element": {},
		"reference_element": {},
		"fixation_time": 400,
		"fixation_mark_html": "<img class='toj-fixation-mark absolute-position' src='./images/fixmark.png'></img>",
		"data": {
			"probeLeft": false,
			"salient": false
		},
		"response_key": "f",
		"response": "reference",
		"response_correct": true,
		"measured_soa": 51,
		"rt": 1796,
		"probeLeft": false,
		"salient": false,
		"trial_type": "toj",
		"trial_index": 91,
		"time_elapsed": 275021,
		"internal_node_id": "0.0-5.0-0.2-0.75"
	},
	{
		"type": "toj",
		"soa": 50,
		"probe_key": "f",
		"reference_key": "j",
		"probe_element": {},
		"reference_element": {},
		"fixation_time": 400,
		"fixation_mark_html": "<img class='toj-fixation-mark absolute-position' src='./images/fixmark.png'></img>",
		"data": {
			"probeLeft": true,
			"salient": false
		},
		"response_key": "j",
		"response": "reference",
		"response_correct": true,
		"measured_soa": 52,
		"rt": 3047.000000000058,
		"probeLeft": true,
		"salient": false,
		"trial_type": "toj",
		"trial_index": 92,
		"time_elapsed": 278523,
		"internal_node_id": "0.0-5.0-0.2-0.76"
	},
	{
		"type": "toj",
		"soa": -150,
		"probe_key": "f",
		"reference_key": "j",
		"probe_element": {},
		"reference_element": {},
		"fixation_time": 400,
		"fixation_mark_html": "<img class='toj-fixation-mark absolute-position' src='./images/fixmark.png'></img>",
		"data": {
			"probeLeft": true,
			"salient": true
		},
		"response_key": "f",
		"response": "probe",
		"response_correct": true,
		"measured_soa": -150,
		"rt": 4775,
		"probeLeft": true,
		"salient": true,
		"trial_type": "toj",
		"trial_index": 93,
		"time_elapsed": 283852,
		"internal_node_id": "0.0-5.0-0.2-0.77"
	},
	{
		"type": "toj",
		"soa": -100,
		"probe_key": "j",
		"reference_key": "f",
		"probe_element": {},
		"reference_element": {},
		"fixation_time": 400,
		"fixation_mark_html": "<img class='toj-fixation-mark absolute-position' src='./images/fixmark.png'></img>",
		"data": {
			"probeLeft": false,
			"salient": true
		},
		"response_key": "j",
		"response": "probe",
		"response_correct": true,
		"measured_soa": -100,
		"rt": 893,
		"probeLeft": false,
		"salient": true,
		"trial_type": "toj",
		"trial_index": 94,
		"time_elapsed": 285246,
		"internal_node_id": "0.0-5.0-0.2-0.78"
	},
	{
		"type": "toj",
		"soa": 100,
		"probe_key": "j",
		"reference_key": "f",
		"probe_element": {},
		"reference_element": {},
		"fixation_time": 400,
		"fixation_mark_html": "<img class='toj-fixation-mark absolute-position' src='./images/fixmark.png'></img>",
		"data": {
			"probeLeft": false,
			"salient": false
		},
		"response_key": "f",
		"response": "reference",
		"response_correct": true,
		"measured_soa": 101,
		"rt": 985,
		"probeLeft": false,
		"salient": false,
		"trial_type": "toj",
		"trial_index": 95,
		"time_elapsed": 286736,
		"internal_node_id": "0.0-5.0-0.2-0.79"
	},
	{
		"type": "toj",
		"soa": -100,
		"probe_key": "f",
		"reference_key": "j",
		"probe_element": {},
		"reference_element": {},
		"fixation_time": 400,
		"fixation_mark_html": "<img class='toj-fixation-mark absolute-position' src='./images/fixmark.png'></img>",
		"data": {
			"probeLeft": true,
			"salient": true
		},
		"response_key": "f",
		"response": "probe",
		"response_correct": true,
		"measured_soa": -101,
		"rt": 660,
		"probeLeft": true,
		"salient": true,
		"trial_type": "toj",
		"trial_index": 96,
		"time_elapsed": 287900,
		"internal_node_id": "0.0-5.0-0.2-0.80"
	},
	{
		"type": "toj",
		"soa": -150,
		"probe_key": "j",
		"reference_key": "f",
		"probe_element": {},
		"reference_element": {},
		"fixation_time": 400,
		"fixation_mark_html": "<img class='toj-fixation-mark absolute-position' src='./images/fixmark.png'></img>",
		"data": {
			"probeLeft": false,
			"salient": false
		},
		"response_key": "j",
		"response": "probe",
		"response_correct": true,
		"measured_soa": -152,
		"rt": 967,
		"probeLeft": false,
		"salient": false,
		"trial_type": "toj",
		"trial_index": 97,
		"time_elapsed": 289421,
		"internal_node_id": "0.0-5.0-0.2-0.81"
	},
	{
		"type": "toj",
		"soa": 0,
		"probe_key": "j",
		"reference_key": "f",
		"probe_element": {},
		"reference_element": {},
		"fixation_time": 400,
		"fixation_mark_html": "<img class='toj-fixation-mark absolute-position' src='./images/fixmark.png'></img>",
		"data": {
			"probeLeft": false,
			"salient": true
		},
		"response_key": "j",
		"response": "probe",
		"response_correct": true,
		"measured_soa": 0,
		"rt": 2104,
		"probeLeft": false,
		"salient": true,
		"trial_type": "toj",
		"trial_index": 98,
		"time_elapsed": 291928,
		"internal_node_id": "0.0-5.0-0.2-0.82"
	},
	{
		"type": "toj",
		"soa": -100,
		"probe_key": "j",
		"reference_key": "f",
		"probe_element": {},
		"reference_element": {},
		"fixation_time": 400,
		"fixation_mark_html": "<img class='toj-fixation-mark absolute-position' src='./images/fixmark.png'></img>",
		"data": {
			"probeLeft": false,
			"salient": false
		},
		"response_key": "j",
		"response": "probe",
		"response_correct": true,
		"measured_soa": -101,
		"rt": 2826,
		"probeLeft": false,
		"salient": false,
		"trial_type": "toj",
		"trial_index": 99,
		"time_elapsed": 295258,
		"internal_node_id": "0.0-5.0-0.2-0.83"
	},
	{
		"rt": 9605,
		"stimulus": "<p>You finished block 3 of 5.<p/><p>Press any key to continue.</p>",
		"key_press": 74,
		"trial_type": "html-keyboard-response",
		"trial_index": 100,
		"time_elapsed": 304864,
		"internal_node_id": "0.0-5.0-1.2"
	},
	{
		"type": "toj",
		"soa": -150,
		"probe_key": "j",
		"reference_key": "f",
		"probe_element": {},
		"reference_element": {},
		"fixation_time": 400,
		"fixation_mark_html": "<img class='toj-fixation-mark absolute-position' src='./images/fixmark.png'></img>",
		"data": {
			"probeLeft": false,
			"salient": false
		},
		"response_key": "j",
		"response": "probe",
		"response_correct": true,
		"measured_soa": -152,
		"rt": 3863,
		"probeLeft": false,
		"salient": false,
		"trial_type": "toj",
		"trial_index": 101,
		"time_elapsed": 309282,
		"internal_node_id": "0.0-5.0-0.3-0.84"
	},
	{
		"type": "toj",
		"soa": -50,
		"probe_key": "j",
		"reference_key": "f",
		"probe_element": {},
		"reference_element": {},
		"fixation_time": 400,
		"fixation_mark_html": "<img class='toj-fixation-mark absolute-position' src='./images/fixmark.png'></img>",
		"data": {
			"probeLeft": false,
			"salient": false
		},
		"response_key": "j",
		"response": "probe",
		"response_correct": true,
		"measured_soa": -51.99999999994179,
		"rt": 6261,
		"probeLeft": false,
		"salient": false,
		"trial_type": "toj",
		"trial_index": 102,
		"time_elapsed": 315997,
		"internal_node_id": "0.0-5.0-0.3-0.85"
	},
	{
		"type": "toj",
		"soa": 100,
		"probe_key": "j",
		"reference_key": "f",
		"probe_element": {},
		"reference_element": {},
		"fixation_time": 400,
		"fixation_mark_html": "<img class='toj-fixation-mark absolute-position' src='./images/fixmark.png'></img>",
		"data": {
			"probeLeft": false,
			"salient": false
		},
		"response_key": "f",
		"response": "reference",
		"response_correct": true,
		"measured_soa": 101,
		"rt": 1726,
		"probeLeft": false,
		"salient": false,
		"trial_type": "toj",
		"trial_index": 103,
		"time_elapsed": 318228,
		"internal_node_id": "0.0-5.0-0.3-0.86"
	},
	{
		"type": "toj",
		"soa": 50,
		"probe_key": "f",
		"reference_key": "j",
		"probe_element": {},
		"reference_element": {},
		"fixation_time": 400,
		"fixation_mark_html": "<img class='toj-fixation-mark absolute-position' src='./images/fixmark.png'></img>",
		"data": {
			"probeLeft": true,
			"salient": false
		},
		"response_key": "j",
		"response": "reference",
		"response_correct": true,
		"measured_soa": 51,
		"rt": 1278,
		"probeLeft": true,
		"salient": false,
		"trial_type": "toj",
		"trial_index": 104,
		"time_elapsed": 319960,
		"internal_node_id": "0.0-5.0-0.3-0.87"
	},
	{
		"type": "toj",
		"soa": -150,
		"probe_key": "j",
		"reference_key": "f",
		"probe_element": {},
		"reference_element": {},
		"fixation_time": 400,
		"fixation_mark_html": "<img class='toj-fixation-mark absolute-position' src='./images/fixmark.png'></img>",
		"data": {
			"probeLeft": false,
			"salient": true
		},
		"response_key": "f",
		"response": "reference",
		"response_correct": false,
		"measured_soa": -150.9999999999418,
		"rt": 6548,
		"probeLeft": false,
		"salient": true,
		"trial_type": "toj",
		"trial_index": 105,
		"time_elapsed": 327062,
		"internal_node_id": "0.0-5.0-0.3-0.88"
	},
	{
		"type": "toj",
		"soa": 50,
		"probe_key": "j",
		"reference_key": "f",
		"probe_element": {},
		"reference_element": {},
		"fixation_time": 400,
		"fixation_mark_html": "<img class='toj-fixation-mark absolute-position' src='./images/fixmark.png'></img>",
		"data": {
			"probeLeft": false,
			"salient": true
		},
		"response_key": "f",
		"response": "reference",
		"response_correct": true,
		"measured_soa": 51,
		"rt": 1316,
		"probeLeft": false,
		"salient": true,
		"trial_type": "toj",
		"trial_index": 106,
		"time_elapsed": 328832,
		"internal_node_id": "0.0-5.0-0.3-0.89"
	},
	{
		"type": "toj",
		"soa": 0,
		"probe_key": "f",
		"reference_key": "j",
		"probe_element": {},
		"reference_element": {},
		"fixation_time": 400,
		"fixation_mark_html": "<img class='toj-fixation-mark absolute-position' src='./images/fixmark.png'></img>",
		"data": {
			"probeLeft": true,
			"salient": true
		},
		"response_key": "f",
		"response": "probe",
		"response_correct": true,
		"measured_soa": 0,
		"rt": 1620,
		"probeLeft": true,
		"salient": true,
		"trial_type": "toj",
		"trial_index": 107,
		"time_elapsed": 330855,
		"internal_node_id": "0.0-5.0-0.3-0.90"
	},
	{
		"type": "toj",
		"soa": 0,
		"probe_key": "j",
		"reference_key": "f",
		"probe_element": {},
		"reference_element": {},
		"fixation_time": 400,
		"fixation_mark_html": "<img class='toj-fixation-mark absolute-position' src='./images/fixmark.png'></img>",
		"data": {
			"probeLeft": false,
			"salient": true
		},
		"response_key": "j",
		"response": "probe",
		"response_correct": true,
		"measured_soa": 0,
		"rt": 3453,
		"probeLeft": false,
		"salient": true,
		"trial_type": "toj",
		"trial_index": 108,
		"time_elapsed": 334713,
		"internal_node_id": "0.0-5.0-0.3-0.91"
	},
	{
		"type": "toj",
		"soa": -50,
		"probe_key": "f",
		"reference_key": "j",
		"probe_element": {},
		"reference_element": {},
		"fixation_time": 400,
		"fixation_mark_html": "<img class='toj-fixation-mark absolute-position' src='./images/fixmark.png'></img>",
		"data": {
			"probeLeft": true,
			"salient": false
		},
		"response_key": "f",
		"response": "probe",
		"response_correct": true,
		"measured_soa": -50,
		"rt": 2282,
		"probeLeft": true,
		"salient": false,
		"trial_type": "toj",
		"trial_index": 109,
		"time_elapsed": 337448,
		"internal_node_id": "0.0-5.0-0.3-0.92"
	},
	{
		"type": "toj",
		"soa": -50,
		"probe_key": "j",
		"reference_key": "f",
		"probe_element": {},
		"reference_element": {},
		"fixation_time": 400,
		"fixation_mark_html": "<img class='toj-fixation-mark absolute-position' src='./images/fixmark.png'></img>",
		"data": {
			"probeLeft": false,
			"salient": true
		},
		"response_key": "j",
		"response": "probe",
		"response_correct": true,
		"measured_soa": -50.99999999994179,
		"rt": 2241,
		"probeLeft": false,
		"salient": true,
		"trial_type": "toj",
		"trial_index": 110,
		"time_elapsed": 340144,
		"internal_node_id": "0.0-5.0-0.3-0.93"
	},
	{
		"type": "toj",
		"soa": 150,
		"probe_key": "j",
		"reference_key": "f",
		"probe_element": {},
		"reference_element": {},
		"fixation_time": 400,
		"fixation_mark_html": "<img class='toj-fixation-mark absolute-position' src='./images/fixmark.png'></img>",
		"data": {
			"probeLeft": false,
			"salient": false
		},
		"response_key": "f",
		"response": "reference",
		"response_correct": true,
		"measured_soa": 151.0000000000582,
		"rt": 2732,
		"probeLeft": false,
		"salient": false,
		"trial_type": "toj",
		"trial_index": 111,
		"time_elapsed": 343430,
		"internal_node_id": "0.0-5.0-0.3-0.94"
	},
	{
		"type": "toj",
		"soa": 50,
		"probe_key": "j",
		"reference_key": "f",
		"probe_element": {},
		"reference_element": {},
		"fixation_time": 400,
		"fixation_mark_html": "<img class='toj-fixation-mark absolute-position' src='./images/fixmark.png'></img>",
		"data": {
			"probeLeft": false,
			"salient": false
		},
		"response_key": "f",
		"response": "reference",
		"response_correct": true,
		"measured_soa": 51,
		"rt": 2756,
		"probeLeft": false,
		"salient": false,
		"trial_type": "toj",
		"trial_index": 112,
		"time_elapsed": 346641,
		"internal_node_id": "0.0-5.0-0.3-0.95"
	},
	{
		"type": "toj",
		"soa": -150,
		"probe_key": "f",
		"reference_key": "j",
		"probe_element": {},
		"reference_element": {},
		"fixation_time": 400,
		"fixation_mark_html": "<img class='toj-fixation-mark absolute-position' src='./images/fixmark.png'></img>",
		"data": {
			"probeLeft": true,
			"salient": true
		},
		"response_key": "f",
		"response": "probe",
		"response_correct": true,
		"measured_soa": -151,
		"rt": 1723,
		"probeLeft": true,
		"salient": true,
		"trial_type": "toj",
		"trial_index": 113,
		"time_elapsed": 348917,
		"internal_node_id": "0.0-5.0-0.3-0.96"
	},
	{
		"type": "toj",
		"soa": -150,
		"probe_key": "f",
		"reference_key": "j",
		"probe_element": {},
		"reference_element": {},
		"fixation_time": 400,
		"fixation_mark_html": "<img class='toj-fixation-mark absolute-position' src='./images/fixmark.png'></img>",
		"data": {
			"probeLeft": true,
			"salient": false
		},
		"response_key": "f",
		"response": "probe",
		"response_correct": true,
		"measured_soa": -150,
		"rt": 1021,
		"probeLeft": true,
		"salient": false,
		"trial_type": "toj",
		"trial_index": 114,
		"time_elapsed": 350491,
		"internal_node_id": "0.0-5.0-0.3-0.97"
	},
	{
		"type": "toj",
		"soa": -100,
		"probe_key": "j",
		"reference_key": "f",
		"probe_element": {},
		"reference_element": {},
		"fixation_time": 400,
		"fixation_mark_html": "<img class='toj-fixation-mark absolute-position' src='./images/fixmark.png'></img>",
		"data": {
			"probeLeft": false,
			"salient": false
		},
		"response_key": "j",
		"response": "probe",
		"response_correct": true,
		"measured_soa": -100,
		"rt": 1317,
		"probeLeft": false,
		"salient": false,
		"trial_type": "toj",
		"trial_index": 115,
		"time_elapsed": 352311,
		"internal_node_id": "0.0-5.0-0.3-0.98"
	},
	{
		"type": "toj",
		"soa": 100,
		"probe_key": "f",
		"reference_key": "j",
		"probe_element": {},
		"reference_element": {},
		"fixation_time": 400,
		"fixation_mark_html": "<img class='toj-fixation-mark absolute-position' src='./images/fixmark.png'></img>",
		"data": {
			"probeLeft": true,
			"salient": false
		},
		"response_key": "j",
		"response": "reference",
		"response_correct": true,
		"measured_soa": 101,
		"rt": 1402,
		"probeLeft": true,
		"salient": false,
		"trial_type": "toj",
		"trial_index": 116,
		"time_elapsed": 354218,
		"internal_node_id": "0.0-5.0-0.3-0.99"
	},
	{
		"type": "toj",
		"soa": -100,
		"probe_key": "j",
		"reference_key": "f",
		"probe_element": {},
		"reference_element": {},
		"fixation_time": 400,
		"fixation_mark_html": "<img class='toj-fixation-mark absolute-position' src='./images/fixmark.png'></img>",
		"data": {
			"probeLeft": false,
			"salient": true
		},
		"response_key": "j",
		"response": "probe",
		"response_correct": true,
		"measured_soa": -101,
		"rt": 1422,
		"probeLeft": false,
		"salient": true,
		"trial_type": "toj",
		"trial_index": 117,
		"time_elapsed": 356145,
		"internal_node_id": "0.0-5.0-0.3-0.100"
	},
	{
		"type": "toj",
		"soa": 100,
		"probe_key": "f",
		"reference_key": "j",
		"probe_element": {},
		"reference_element": {},
		"fixation_time": 400,
		"fixation_mark_html": "<img class='toj-fixation-mark absolute-position' src='./images/fixmark.png'></img>",
		"data": {
			"probeLeft": true,
			"salient": true
		},
		"response_key": "j",
		"response": "reference",
		"response_correct": true,
		"measured_soa": 100.00000000005821,
		"rt": 1120.9999999999418,
		"probeLeft": true,
		"salient": true,
		"trial_type": "toj",
		"trial_index": 118,
		"time_elapsed": 357772,
		"internal_node_id": "0.0-5.0-0.3-0.101"
	},
	{
		"type": "toj",
		"soa": 50,
		"probe_key": "f",
		"reference_key": "j",
		"probe_element": {},
		"reference_element": {},
		"fixation_time": 400,
		"fixation_mark_html": "<img class='toj-fixation-mark absolute-position' src='./images/fixmark.png'></img>",
		"data": {
			"probeLeft": true,
			"salient": true
		},
		"response_key": "j",
		"response": "reference",
		"response_correct": true,
		"measured_soa": 50,
		"rt": 1481,
		"probeLeft": true,
		"salient": true,
		"trial_type": "toj",
		"trial_index": 119,
		"time_elapsed": 359706,
		"internal_node_id": "0.0-5.0-0.3-0.102"
	},
	{
		"type": "toj",
		"soa": 150,
		"probe_key": "f",
		"reference_key": "j",
		"probe_element": {},
		"reference_element": {},
		"fixation_time": 400,
		"fixation_mark_html": "<img class='toj-fixation-mark absolute-position' src='./images/fixmark.png'></img>",
		"data": {
			"probeLeft": true,
			"salient": false
		},
		"response_key": "j",
		"response": "reference",
		"response_correct": true,
		"measured_soa": 151.9999999999418,
		"rt": 994,
		"probeLeft": true,
		"salient": false,
		"trial_type": "toj",
		"trial_index": 120,
		"time_elapsed": 361255,
		"internal_node_id": "0.0-5.0-0.3-0.103"
	},
	{
		"type": "toj",
		"soa": 0,
		"probe_key": "f",
		"reference_key": "j",
		"probe_element": {},
		"reference_element": {},
		"fixation_time": 400,
		"fixation_mark_html": "<img class='toj-fixation-mark absolute-position' src='./images/fixmark.png'></img>",
		"data": {
			"probeLeft": true,
			"salient": false
		},
		"response_key": "j",
		"response": "reference",
		"response_correct": true,
		"measured_soa": 0,
		"rt": 2760,
		"probeLeft": true,
		"salient": false,
		"trial_type": "toj",
		"trial_index": 121,
		"time_elapsed": 364418,
		"internal_node_id": "0.0-5.0-0.3-0.104"
	},
	{
		"type": "toj",
		"soa": -100,
		"probe_key": "f",
		"reference_key": "j",
		"probe_element": {},
		"reference_element": {},
		"fixation_time": 400,
		"fixation_mark_html": "<img class='toj-fixation-mark absolute-position' src='./images/fixmark.png'></img>",
		"data": {
			"probeLeft": true,
			"salient": false
		},
		"response_key": "f",
		"response": "probe",
		"response_correct": true,
		"measured_soa": -101,
		"rt": 1533,
		"probeLeft": true,
		"salient": false,
		"trial_type": "toj",
		"trial_index": 122,
		"time_elapsed": 366455,
		"internal_node_id": "0.0-5.0-0.3-0.105"
	},
	{
		"type": "toj",
		"soa": 150,
		"probe_key": "f",
		"reference_key": "j",
		"probe_element": {},
		"reference_element": {},
		"fixation_time": 400,
		"fixation_mark_html": "<img class='toj-fixation-mark absolute-position' src='./images/fixmark.png'></img>",
		"data": {
			"probeLeft": true,
			"salient": true
		},
		"response_key": "j",
		"response": "reference",
		"response_correct": true,
		"measured_soa": 151,
		"rt": 2666,
		"probeLeft": true,
		"salient": true,
		"trial_type": "toj",
		"trial_index": 123,
		"time_elapsed": 369675,
		"internal_node_id": "0.0-5.0-0.3-0.106"
	},
	{
		"type": "toj",
		"soa": 0,
		"probe_key": "j",
		"reference_key": "f",
		"probe_element": {},
		"reference_element": {},
		"fixation_time": 400,
		"fixation_mark_html": "<img class='toj-fixation-mark absolute-position' src='./images/fixmark.png'></img>",
		"data": {
			"probeLeft": false,
			"salient": false
		},
		"response_key": "j",
		"response": "probe",
		"response_correct": true,
		"measured_soa": 0,
		"rt": 1647,
		"probeLeft": false,
		"salient": false,
		"trial_type": "toj",
		"trial_index": 124,
		"time_elapsed": 371725,
		"internal_node_id": "0.0-5.0-0.3-0.107"
	},
	{
		"type": "toj",
		"soa": -50,
		"probe_key": "f",
		"reference_key": "j",
		"probe_element": {},
		"reference_element": {},
		"fixation_time": 400,
		"fixation_mark_html": "<img class='toj-fixation-mark absolute-position' src='./images/fixmark.png'></img>",
		"data": {
			"probeLeft": true,
			"salient": true
		},
		"response_key": "j",
		"response": "reference",
		"response_correct": false,
		"measured_soa": -52,
		"rt": 3106,
		"probeLeft": true,
		"salient": true,
		"trial_type": "toj",
		"trial_index": 125,
		"time_elapsed": 375287,
		"internal_node_id": "0.0-5.0-0.3-0.108"
	},
	{
		"type": "toj",
		"soa": 100,
		"probe_key": "j",
		"reference_key": "f",
		"probe_element": {},
		"reference_element": {},
		"fixation_time": 400,
		"fixation_mark_html": "<img class='toj-fixation-mark absolute-position' src='./images/fixmark.png'></img>",
		"data": {
			"probeLeft": false,
			"salient": true
		},
		"response_key": "j",
		"response": "probe",
		"response_correct": false,
		"measured_soa": 100,
		"rt": 4681,
		"probeLeft": false,
		"salient": true,
		"trial_type": "toj",
		"trial_index": 126,
		"time_elapsed": 380471,
		"internal_node_id": "0.0-5.0-0.3-0.109"
	},
	{
		"type": "toj",
		"soa": 150,
		"probe_key": "j",
		"reference_key": "f",
		"probe_element": {},
		"reference_element": {},
		"fixation_time": 400,
		"fixation_mark_html": "<img class='toj-fixation-mark absolute-position' src='./images/fixmark.png'></img>",
		"data": {
			"probeLeft": false,
			"salient": true
		},
		"response_key": "f",
		"response": "reference",
		"response_correct": true,
		"measured_soa": 151.0000000000582,
		"rt": 973.9999999999418,
		"probeLeft": false,
		"salient": true,
		"trial_type": "toj",
		"trial_index": 127,
		"time_elapsed": 382000,
		"internal_node_id": "0.0-5.0-0.3-0.110"
	},
	{
		"type": "toj",
		"soa": -100,
		"probe_key": "f",
		"reference_key": "j",
		"probe_element": {},
		"reference_element": {},
		"fixation_time": 400,
		"fixation_mark_html": "<img class='toj-fixation-mark absolute-position' src='./images/fixmark.png'></img>",
		"data": {
			"probeLeft": true,
			"salient": true
		},
		"response_key": "f",
		"response": "probe",
		"response_correct": true,
		"measured_soa": -101,
		"rt": 959,
		"probeLeft": true,
		"salient": true,
		"trial_type": "toj",
		"trial_index": 128,
		"time_elapsed": 383462,
		"internal_node_id": "0.0-5.0-0.3-0.111"
	},
	{
		"rt": 12151,
		"stimulus": "<p>You finished block 4 of 5.<p/><p>Press any key to continue.</p>",
		"key_press": 74,
		"trial_type": "html-keyboard-response",
		"trial_index": 129,
		"time_elapsed": 395614,
		"internal_node_id": "0.0-5.0-1.3"
	},
	{
		"type": "toj",
		"soa": -150,
		"probe_key": "f",
		"reference_key": "j",
		"probe_element": {},
		"reference_element": {},
		"fixation_time": 400,
		"fixation_mark_html": "<img class='toj-fixation-mark absolute-position' src='./images/fixmark.png'></img>",
		"data": {
			"probeLeft": true,
			"salient": false
		},
		"response_key": "f",
		"response": "probe",
		"response_correct": true,
		"measured_soa": -151,
		"rt": 1636,
		"probeLeft": true,
		"salient": false,
		"trial_type": "toj",
		"trial_index": 130,
		"time_elapsed": 397803,
		"internal_node_id": "0.0-5.0-0.4-0.112"
	},
	{
		"type": "toj",
		"soa": -150,
		"probe_key": "f",
		"reference_key": "j",
		"probe_element": {},
		"reference_element": {},
		"fixation_time": 400,
		"fixation_mark_html": "<img class='toj-fixation-mark absolute-position' src='./images/fixmark.png'></img>",
		"data": {
			"probeLeft": true,
			"salient": true
		},
		"response_key": "f",
		"response": "probe",
		"response_correct": true,
		"measured_soa": -151,
		"rt": 1717.0000000000582,
		"probeLeft": true,
		"salient": true,
		"trial_type": "toj",
		"trial_index": 131,
		"time_elapsed": 400074,
		"internal_node_id": "0.0-5.0-0.4-0.113"
	},
	{
		"type": "toj",
		"soa": 0,
		"probe_key": "f",
		"reference_key": "j",
		"probe_element": {},
		"reference_element": {},
		"fixation_time": 400,
		"fixation_mark_html": "<img class='toj-fixation-mark absolute-position' src='./images/fixmark.png'></img>",
		"data": {
			"probeLeft": true,
			"salient": false
		},
		"response_key": "f",
		"response": "probe",
		"response_correct": true,
		"measured_soa": 0,
		"rt": 906,
		"probeLeft": true,
		"salient": false,
		"trial_type": "toj",
		"trial_index": 132,
		"time_elapsed": 401384,
		"internal_node_id": "0.0-5.0-0.4-0.114"
	},
	{
		"type": "toj",
		"soa": 150,
		"probe_key": "j",
		"reference_key": "f",
		"probe_element": {},
		"reference_element": {},
		"fixation_time": 400,
		"fixation_mark_html": "<img class='toj-fixation-mark absolute-position' src='./images/fixmark.png'></img>",
		"data": {
			"probeLeft": false,
			"salient": false
		},
		"response_key": "f",
		"response": "reference",
		"response_correct": true,
		"measured_soa": 151,
		"rt": 3183,
		"probeLeft": false,
		"salient": false,
		"trial_type": "toj",
		"trial_index": 133,
		"time_elapsed": 405121,
		"internal_node_id": "0.0-5.0-0.4-0.115"
	},
	{
		"type": "toj",
		"soa": -100,
		"probe_key": "f",
		"reference_key": "j",
		"probe_element": {},
		"reference_element": {},
		"fixation_time": 400,
		"fixation_mark_html": "<img class='toj-fixation-mark absolute-position' src='./images/fixmark.png'></img>",
		"data": {
			"probeLeft": true,
			"salient": true
		},
		"response_key": "f",
		"response": "probe",
		"response_correct": true,
		"measured_soa": -102,
		"rt": 1179,
		"probeLeft": true,
		"salient": true,
		"trial_type": "toj",
		"trial_index": 134,
		"time_elapsed": 406805,
		"internal_node_id": "0.0-5.0-0.4-0.116"
	},
	{
		"type": "toj",
		"soa": 0,
		"probe_key": "f",
		"reference_key": "j",
		"probe_element": {},
		"reference_element": {},
		"fixation_time": 400,
		"fixation_mark_html": "<img class='toj-fixation-mark absolute-position' src='./images/fixmark.png'></img>",
		"data": {
			"probeLeft": true,
			"salient": true
		},
		"response_key": "f",
		"response": "probe",
		"response_correct": true,
		"measured_soa": 0,
		"rt": 1886,
		"probeLeft": true,
		"salient": true,
		"trial_type": "toj",
		"trial_index": 135,
		"time_elapsed": 409094,
		"internal_node_id": "0.0-5.0-0.4-0.117"
	},
	{
		"type": "toj",
		"soa": 150,
		"probe_key": "j",
		"reference_key": "f",
		"probe_element": {},
		"reference_element": {},
		"fixation_time": 400,
		"fixation_mark_html": "<img class='toj-fixation-mark absolute-position' src='./images/fixmark.png'></img>",
		"data": {
			"probeLeft": false,
			"salient": true
		},
		"response_key": "f",
		"response": "reference",
		"response_correct": true,
		"measured_soa": 150.9999999999418,
		"rt": 1368,
		"probeLeft": false,
		"salient": true,
		"trial_type": "toj",
		"trial_index": 136,
		"time_elapsed": 411016,
		"internal_node_id": "0.0-5.0-0.4-0.118"
	},
	{
		"type": "toj",
		"soa": 150,
		"probe_key": "f",
		"reference_key": "j",
		"probe_element": {},
		"reference_element": {},
		"fixation_time": 400,
		"fixation_mark_html": "<img class='toj-fixation-mark absolute-position' src='./images/fixmark.png'></img>",
		"data": {
			"probeLeft": true,
			"salient": true
		},
		"response_key": "j",
		"response": "reference",
		"response_correct": true,
		"measured_soa": 151,
		"rt": 1673,
		"probeLeft": true,
		"salient": true,
		"trial_type": "toj",
		"trial_index": 137,
		"time_elapsed": 413244,
		"internal_node_id": "0.0-5.0-0.4-0.119"
	},
	{
		"type": "toj",
		"soa": 50,
		"probe_key": "j",
		"reference_key": "f",
		"probe_element": {},
		"reference_element": {},
		"fixation_time": 400,
		"fixation_mark_html": "<img class='toj-fixation-mark absolute-position' src='./images/fixmark.png'></img>",
		"data": {
			"probeLeft": false,
			"salient": false
		},
		"response_key": "f",
		"response": "reference",
		"response_correct": true,
		"measured_soa": 51.99999999994179,
		"rt": 2009,
		"probeLeft": false,
		"salient": false,
		"trial_type": "toj",
		"trial_index": 138,
		"time_elapsed": 415707,
		"internal_node_id": "0.0-5.0-0.4-0.120"
	},
	{
		"type": "toj",
		"soa": 100,
		"probe_key": "j",
		"reference_key": "f",
		"probe_element": {},
		"reference_element": {},
		"fixation_time": 400,
		"fixation_mark_html": "<img class='toj-fixation-mark absolute-position' src='./images/fixmark.png'></img>",
		"data": {
			"probeLeft": false,
			"salient": true
		},
		"response_key": "f",
		"response": "reference",
		"response_correct": true,
		"measured_soa": 101,
		"rt": 2726,
		"probeLeft": false,
		"salient": true,
		"trial_type": "toj",
		"trial_index": 139,
		"time_elapsed": 418937,
		"internal_node_id": "0.0-5.0-0.4-0.121"
	},
	{
		"type": "toj",
		"soa": 100,
		"probe_key": "j",
		"reference_key": "f",
		"probe_element": {},
		"reference_element": {},
		"fixation_time": 400,
		"fixation_mark_html": "<img class='toj-fixation-mark absolute-position' src='./images/fixmark.png'></img>",
		"data": {
			"probeLeft": false,
			"salient": false
		},
		"response_key": "f",
		"response": "reference",
		"response_correct": true,
		"measured_soa": 101,
		"rt": 823.0000000000582,
		"probeLeft": false,
		"salient": false,
		"trial_type": "toj",
		"trial_index": 140,
		"time_elapsed": 420265,
		"internal_node_id": "0.0-5.0-0.4-0.122"
	},
	{
		"type": "toj",
		"soa": -100,
		"probe_key": "j",
		"reference_key": "f",
		"probe_element": {},
		"reference_element": {},
		"fixation_time": 400,
		"fixation_mark_html": "<img class='toj-fixation-mark absolute-position' src='./images/fixmark.png'></img>",
		"data": {
			"probeLeft": false,
			"salient": false
		},
		"response_key": "j",
		"response": "probe",
		"response_correct": true,
		"measured_soa": -101,
		"rt": 1748,
		"probeLeft": false,
		"salient": false,
		"trial_type": "toj",
		"trial_index": 141,
		"time_elapsed": 422518,
		"internal_node_id": "0.0-5.0-0.4-0.123"
	},
	{
		"type": "toj",
		"soa": -50,
		"probe_key": "j",
		"reference_key": "f",
		"probe_element": {},
		"reference_element": {},
		"fixation_time": 400,
		"fixation_mark_html": "<img class='toj-fixation-mark absolute-position' src='./images/fixmark.png'></img>",
		"data": {
			"probeLeft": false,
			"salient": true
		},
		"response_key": "f",
		"response": "reference",
		"response_correct": false,
		"measured_soa": -50.99999999994179,
		"rt": 1535,
		"probeLeft": false,
		"salient": true,
		"trial_type": "toj",
		"trial_index": 142,
		"time_elapsed": 424507,
		"internal_node_id": "0.0-5.0-0.4-0.124"
	},
	{
		"type": "toj",
		"soa": -50,
		"probe_key": "j",
		"reference_key": "f",
		"probe_element": {},
		"reference_element": {},
		"fixation_time": 400,
		"fixation_mark_html": "<img class='toj-fixation-mark absolute-position' src='./images/fixmark.png'></img>",
		"data": {
			"probeLeft": false,
			"salient": false
		},
		"response_key": "j",
		"response": "probe",
		"response_correct": true,
		"measured_soa": -51,
		"rt": 1517,
		"probeLeft": false,
		"salient": false,
		"trial_type": "toj",
		"trial_index": 143,
		"time_elapsed": 426478,
		"internal_node_id": "0.0-5.0-0.4-0.125"
	},
	{
		"type": "toj",
		"soa": 50,
		"probe_key": "f",
		"reference_key": "j",
		"probe_element": {},
		"reference_element": {},
		"fixation_time": 400,
		"fixation_mark_html": "<img class='toj-fixation-mark absolute-position' src='./images/fixmark.png'></img>",
		"data": {
			"probeLeft": true,
			"salient": false
		},
		"response_key": "j",
		"response": "reference",
		"response_correct": true,
		"measured_soa": 50,
		"rt": 2144.000000000058,
		"probeLeft": true,
		"salient": false,
		"trial_type": "toj",
		"trial_index": 144,
		"time_elapsed": 429075,
		"internal_node_id": "0.0-5.0-0.4-0.126"
	},
	{
		"type": "toj",
		"soa": -50,
		"probe_key": "f",
		"reference_key": "j",
		"probe_element": {},
		"reference_element": {},
		"fixation_time": 400,
		"fixation_mark_html": "<img class='toj-fixation-mark absolute-position' src='./images/fixmark.png'></img>",
		"data": {
			"probeLeft": true,
			"salient": false
		},
		"response_key": "f",
		"response": "probe",
		"response_correct": true,
		"measured_soa": -51,
		"rt": 964,
		"probeLeft": true,
		"salient": false,
		"trial_type": "toj",
		"trial_index": 145,
		"time_elapsed": 430493,
		"internal_node_id": "0.0-5.0-0.4-0.127"
	},
	{
		"type": "toj",
		"soa": -150,
		"probe_key": "j",
		"reference_key": "f",
		"probe_element": {},
		"reference_element": {},
		"fixation_time": 400,
		"fixation_mark_html": "<img class='toj-fixation-mark absolute-position' src='./images/fixmark.png'></img>",
		"data": {
			"probeLeft": false,
			"salient": true
		},
		"response_key": "j",
		"response": "probe",
		"response_correct": true,
		"measured_soa": -152,
		"rt": 1520,
		"probeLeft": false,
		"salient": true,
		"trial_type": "toj",
		"trial_index": 146,
		"time_elapsed": 432569,
		"internal_node_id": "0.0-5.0-0.4-0.128"
	},
	{
		"type": "toj",
		"soa": 0,
		"probe_key": "j",
		"reference_key": "f",
		"probe_element": {},
		"reference_element": {},
		"fixation_time": 400,
		"fixation_mark_html": "<img class='toj-fixation-mark absolute-position' src='./images/fixmark.png'></img>",
		"data": {
			"probeLeft": false,
			"salient": true
		},
		"response_key": "j",
		"response": "probe",
		"response_correct": true,
		"measured_soa": 0,
		"rt": 1758.0000000000582,
		"probeLeft": false,
		"salient": true,
		"trial_type": "toj",
		"trial_index": 147,
		"time_elapsed": 434729,
		"internal_node_id": "0.0-5.0-0.4-0.129"
	},
	{
		"type": "toj",
		"soa": -50,
		"probe_key": "f",
		"reference_key": "j",
		"probe_element": {},
		"reference_element": {},
		"fixation_time": 400,
		"fixation_mark_html": "<img class='toj-fixation-mark absolute-position' src='./images/fixmark.png'></img>",
		"data": {
			"probeLeft": true,
			"salient": true
		},
		"response_key": "f",
		"response": "probe",
		"response_correct": true,
		"measured_soa": -51.00000000005821,
		"rt": 3386.999999999942,
		"probeLeft": true,
		"salient": true,
		"trial_type": "toj",
		"trial_index": 148,
		"time_elapsed": 438571,
		"internal_node_id": "0.0-5.0-0.4-0.130"
	},
	{
		"type": "toj",
		"soa": -150,
		"probe_key": "j",
		"reference_key": "f",
		"probe_element": {},
		"reference_element": {},
		"fixation_time": 400,
		"fixation_mark_html": "<img class='toj-fixation-mark absolute-position' src='./images/fixmark.png'></img>",
		"data": {
			"probeLeft": false,
			"salient": false
		},
		"response_key": "j",
		"response": "probe",
		"response_correct": true,
		"measured_soa": -151,
		"rt": 918,
		"probeLeft": false,
		"salient": false,
		"trial_type": "toj",
		"trial_index": 149,
		"time_elapsed": 440043,
		"internal_node_id": "0.0-5.0-0.4-0.131"
	},
	{
		"type": "toj",
		"soa": -100,
		"probe_key": "f",
		"reference_key": "j",
		"probe_element": {},
		"reference_element": {},
		"fixation_time": 400,
		"fixation_mark_html": "<img class='toj-fixation-mark absolute-position' src='./images/fixmark.png'></img>",
		"data": {
			"probeLeft": true,
			"salient": false
		},
		"response_key": "f",
		"response": "probe",
		"response_correct": true,
		"measured_soa": -102,
		"rt": 860,
		"probeLeft": true,
		"salient": false,
		"trial_type": "toj",
		"trial_index": 150,
		"time_elapsed": 441407,
		"internal_node_id": "0.0-5.0-0.4-0.132"
	},
	{
		"type": "toj",
		"soa": 0,
		"probe_key": "j",
		"reference_key": "f",
		"probe_element": {},
		"reference_element": {},
		"fixation_time": 400,
		"fixation_mark_html": "<img class='toj-fixation-mark absolute-position' src='./images/fixmark.png'></img>",
		"data": {
			"probeLeft": false,
			"salient": false
		},
		"response_key": "j",
		"response": "probe",
		"response_correct": true,
		"measured_soa": 0,
		"rt": 1687,
		"probeLeft": false,
		"salient": false,
		"trial_type": "toj",
		"trial_index": 151,
		"time_elapsed": 443498,
		"internal_node_id": "0.0-5.0-0.4-0.133"
	},
	{
		"type": "toj",
		"soa": 100,
		"probe_key": "f",
		"reference_key": "j",
		"probe_element": {},
		"reference_element": {},
		"fixation_time": 400,
		"fixation_mark_html": "<img class='toj-fixation-mark absolute-position' src='./images/fixmark.png'></img>",
		"data": {
			"probeLeft": true,
			"salient": true
		},
		"response_key": "j",
		"response": "reference",
		"response_correct": true,
		"measured_soa": 101,
		"rt": 1008.0000000000582,
		"probeLeft": true,
		"salient": true,
		"trial_type": "toj",
		"trial_index": 152,
		"time_elapsed": 445010,
		"internal_node_id": "0.0-5.0-0.4-0.134"
	},
	{
		"type": "toj",
		"soa": 50,
		"probe_key": "j",
		"reference_key": "f",
		"probe_element": {},
		"reference_element": {},
		"fixation_time": 400,
		"fixation_mark_html": "<img class='toj-fixation-mark absolute-position' src='./images/fixmark.png'></img>",
		"data": {
			"probeLeft": false,
			"salient": true
		},
		"response_key": "f",
		"response": "reference",
		"response_correct": true,
		"measured_soa": 51,
		"rt": 1481,
		"probeLeft": false,
		"salient": true,
		"trial_type": "toj",
		"trial_index": 153,
		"time_elapsed": 446945,
		"internal_node_id": "0.0-5.0-0.4-0.135"
	},
	{
		"type": "toj",
		"soa": 50,
		"probe_key": "f",
		"reference_key": "j",
		"probe_element": {},
		"reference_element": {},
		"fixation_time": 400,
		"fixation_mark_html": "<img class='toj-fixation-mark absolute-position' src='./images/fixmark.png'></img>",
		"data": {
			"probeLeft": true,
			"salient": true
		},
		"response_key": "f",
		"response": "probe",
		"response_correct": false,
		"measured_soa": 51,
		"rt": 2080.000000000058,
		"probeLeft": true,
		"salient": true,
		"trial_type": "toj",
		"trial_index": 154,
		"time_elapsed": 449479,
		"internal_node_id": "0.0-5.0-0.4-0.136"
	},
	{
		"type": "toj",
		"soa": -100,
		"probe_key": "j",
		"reference_key": "f",
		"probe_element": {},
		"reference_element": {},
		"fixation_time": 400,
		"fixation_mark_html": "<img class='toj-fixation-mark absolute-position' src='./images/fixmark.png'></img>",
		"data": {
			"probeLeft": false,
			"salient": true
		},
		"response_key": "j",
		"response": "probe",
		"response_correct": true,
		"measured_soa": -101,
		"rt": 4693.000000000058,
		"probeLeft": false,
		"salient": true,
		"trial_type": "toj",
		"trial_index": 155,
		"time_elapsed": 454676,
		"internal_node_id": "0.0-5.0-0.4-0.137"
	},
	{
		"type": "toj",
		"soa": 100,
		"probe_key": "f",
		"reference_key": "j",
		"probe_element": {},
		"reference_element": {},
		"fixation_time": 400,
		"fixation_mark_html": "<img class='toj-fixation-mark absolute-position' src='./images/fixmark.png'></img>",
		"data": {
			"probeLeft": true,
			"salient": false
		},
		"response_key": "j",
		"response": "reference",
		"response_correct": true,
		"measured_soa": 101,
		"rt": 953,
		"probeLeft": true,
		"salient": false,
		"trial_type": "toj",
		"trial_index": 156,
		"time_elapsed": 456134,
		"internal_node_id": "0.0-5.0-0.4-0.138"
	},
	{
		"type": "toj",
		"soa": 150,
		"probe_key": "f",
		"reference_key": "j",
		"probe_element": {},
		"reference_element": {},
		"fixation_time": 400,
		"fixation_mark_html": "<img class='toj-fixation-mark absolute-position' src='./images/fixmark.png'></img>",
		"data": {
			"probeLeft": true,
			"salient": false
		},
		"response_key": "j",
		"response": "reference",
		"response_correct": true,
		"measured_soa": 151,
		"rt": 561.0000000000582,
		"probeLeft": true,
		"salient": false,
		"trial_type": "toj",
		"trial_index": 157,
		"time_elapsed": 457249,
		"internal_node_id": "0.0-5.0-0.4-0.139"
	},
	{
		"rt": 2134,
		"stimulus": "<p>This part of the experiment is finished. Press any key to save the results!</p>",
		"key_press": 74,
		"trial_type": "html-keyboard-response",
		"trial_index": 158,
		"time_elapsed": 459383,
		"internal_node_id": "0.0-5.0-1.4"
	}
]
