[
	{
		"rt": 6553,
		"responses": "{\"Q0\":\"007\"}",
		"userAgent": "Mozilla/5.0 (X11; Ubuntu; Linux x86_64; rv:72.0) Gecko/20100101 Firefox/72.0",
		"trial_type": "survey-text",
		"trial_index": 0,
		"time_elapsed": 6562,
		"internal_node_id": "0.0-0.0"
	},
	{
		"success": true,
		"trial_type": "fullscreen",
		"trial_index": 1,
		"time_elapsed": 9775,
		"internal_node_id": "0.0-1.0"
	},
	{
		"rt": 8406,
		"stimulus": "\n      <p style=\"text-align: center;\"><strong>Willkommen zum Experiment.</strong></p>\n      <p>Bevor Sie das Experiment fortf&uuml;hren k&ouml;nnen, fragen Sie sich, ob Sie die drei unteren Fragen bejaht beantworten k&ouml;nnen.</p>\n      <ol>\n      <li>Sind Sie in einer Umgebung, in der Sie ungest&ouml;rt f&uuml;r [X] Minuten an dem Experiment teilnehmen k&ouml;nnen?</li>\n      <li>Haben Sie elektronische Ger&auml;te, au&szlig;er das Ger&auml;t an dem Sie gerade teilnehmen, ausgeschaltet oder in den Flugmodus gestellt?</li>\n      <li>F&uuml;hlen Sie sich momentan wohl?</li>\n      </ol>\n      <p>Selbstverst&auml;ndlich ist ihnen &uuml;berlassen, das Experiement aufgrund von Unwohlseins jederzeit abzubrechen.</p>\n      <p>W&auml;hrend des Experiments wird in der Mitte des Browserfensters ein schwarzer Kreis angezeigt werden. F&uuml;r die Dauer des Experimentes fokussieren Sie diesen. Neben dem Kreis, also rechts und links, wird jeweils ein Wort eingeblendet. Nach einer gewissen Zeit blinken beide W&ouml;rter auf. Sie sollen nun entscheiden, welches Wort zuerst geblinkt hat.</p>\n      <ul style=\"list-style: none;\">\n      <li>F&uuml;r das linke Wort dr&uuml;cken Sie <strong>F</strong></li>\n      <li>F&uuml;r das rechte Wort dr&uuml;cken Sie <strong>J</strong></li>\n      </ul>\n      <p><em>Beide Tasten haben jeweils eine Einkerbung, an welcher Sie sich orientieren k&ouml;nnen.</em></p>\n    ",
		"key_press": 32,
		"trial_type": "html-keyboard-response",
		"trial_index": 2,
		"time_elapsed": 18184,
		"internal_node_id": "0.0-2.0"
	},
	{
		"type": "toj",
		"soa": 100,
		"probe_key": "j",
		"reference_key": "f",
		"probe_element": {},
		"reference_element": {},
		"fixation_time": 400,
		"fixation_mark_html": "<img class='toj-fixation-mark absolute-position' src='./images/fixmark.png'></img>",
		"data": {
			"probeLeft": false,
			"salient": false
		},
		"response_key": "f",
		"response": "reference",
		"response_correct": true,
		"measured_soa": 101,
		"rt": 1097,
		"probeLeft": false,
		"salient": false,
		"trial_type": "toj",
		"trial_index": 3,
		"time_elapsed": 19794,
		"internal_node_id": "0.0-3.0-0.0"
	},
	{
		"type": "toj",
		"soa": 0,
		"probe_key": "f",
		"reference_key": "j",
		"probe_element": {},
		"reference_element": {},
		"fixation_time": 400,
		"fixation_mark_html": "<img class='toj-fixation-mark absolute-position' src='./images/fixmark.png'></img>",
		"data": {
			"probeLeft": true,
			"salient": false
		},
		"response_key": "f",
		"response": "probe",
		"response_correct": true,
		"measured_soa": 1,
		"rt": 880,
		"probeLeft": true,
		"salient": false,
		"trial_type": "toj",
		"trial_index": 4,
		"time_elapsed": 21082,
		"internal_node_id": "0.0-3.0-0.1"
	},
	{
		"type": "toj",
		"soa": -100,
		"probe_key": "j",
		"reference_key": "f",
		"probe_element": {},
		"reference_element": {},
		"fixation_time": 400,
		"fixation_mark_html": "<img class='toj-fixation-mark absolute-position' src='./images/fixmark.png'></img>",
		"data": {
			"probeLeft": false,
			"salient": false
		},
		"response_key": "j",
		"response": "probe",
		"response_correct": true,
		"measured_soa": -101,
		"rt": 1972,
		"probeLeft": false,
		"salient": false,
		"trial_type": "toj",
		"trial_index": 5,
		"time_elapsed": 23563,
		"internal_node_id": "0.0-3.0-0.2"
	},
	{
		"type": "toj",
		"soa": -100,
		"probe_key": "j",
		"reference_key": "f",
		"probe_element": {},
		"reference_element": {},
		"fixation_time": 400,
		"fixation_mark_html": "<img class='toj-fixation-mark absolute-position' src='./images/fixmark.png'></img>",
		"data": {
			"probeLeft": false,
			"salient": true
		},
		"response_key": "j",
		"response": "probe",
		"response_correct": true,
		"measured_soa": -101,
		"rt": 528,
		"probeLeft": false,
		"salient": true,
		"trial_type": "toj",
		"trial_index": 6,
		"time_elapsed": 24599,
		"internal_node_id": "0.0-3.0-0.3"
	},
	{
		"type": "toj",
		"soa": 0,
		"probe_key": "j",
		"reference_key": "f",
		"probe_element": {},
		"reference_element": {},
		"fixation_time": 400,
		"fixation_mark_html": "<img class='toj-fixation-mark absolute-position' src='./images/fixmark.png'></img>",
		"data": {
			"probeLeft": false,
			"salient": false
		},
		"response_key": "j",
		"response": "probe",
		"response_correct": true,
		"measured_soa": 0,
		"rt": 557,
		"probeLeft": false,
		"salient": false,
		"trial_type": "toj",
		"trial_index": 7,
		"time_elapsed": 25563,
		"internal_node_id": "0.0-3.0-0.4"
	},
	{
		"type": "toj",
		"soa": 0,
		"probe_key": "j",
		"reference_key": "f",
		"probe_element": {},
		"reference_element": {},
		"fixation_time": 400,
		"fixation_mark_html": "<img class='toj-fixation-mark absolute-position' src='./images/fixmark.png'></img>",
		"data": {
			"probeLeft": false,
			"salient": true
		},
		"response_key": "j",
		"response": "probe",
		"response_correct": true,
		"measured_soa": 1,
		"rt": 839,
		"probeLeft": false,
		"salient": true,
		"trial_type": "toj",
		"trial_index": 8,
		"time_elapsed": 26809,
		"internal_node_id": "0.0-3.0-0.5"
	},
	{
		"type": "toj",
		"soa": 100,
		"probe_key": "f",
		"reference_key": "j",
		"probe_element": {},
		"reference_element": {},
		"fixation_time": 400,
		"fixation_mark_html": "<img class='toj-fixation-mark absolute-position' src='./images/fixmark.png'></img>",
		"data": {
			"probeLeft": true,
			"salient": false
		},
		"response_key": "j",
		"response": "reference",
		"response_correct": true,
		"measured_soa": 103,
		"rt": 449,
		"probeLeft": true,
		"salient": false,
		"trial_type": "toj",
		"trial_index": 9,
		"time_elapsed": 27765,
		"internal_node_id": "0.0-3.0-0.6"
	},
	{
		"type": "toj",
		"soa": -50,
		"probe_key": "f",
		"reference_key": "j",
		"probe_element": {},
		"reference_element": {},
		"fixation_time": 400,
		"fixation_mark_html": "<img class='toj-fixation-mark absolute-position' src='./images/fixmark.png'></img>",
		"data": {
			"probeLeft": true,
			"salient": false
		},
		"response_key": "f",
		"response": "probe",
		"response_correct": true,
		"measured_soa": -51,
		"rt": 353,
		"probeLeft": true,
		"salient": false,
		"trial_type": "toj",
		"trial_index": 10,
		"time_elapsed": 28575,
		"internal_node_id": "0.0-3.0-0.7"
	},
	{
		"type": "toj",
		"soa": -50,
		"probe_key": "j",
		"reference_key": "f",
		"probe_element": {},
		"reference_element": {},
		"fixation_time": 400,
		"fixation_mark_html": "<img class='toj-fixation-mark absolute-position' src='./images/fixmark.png'></img>",
		"data": {
			"probeLeft": false,
			"salient": true
		},
		"response_key": "j",
		"response": "probe",
		"response_correct": true,
		"measured_soa": -51,
		"rt": 374,
		"probeLeft": false,
		"salient": true,
		"trial_type": "toj",
		"trial_index": 11,
		"time_elapsed": 29406,
		"internal_node_id": "0.0-3.0-0.8"
	},
	{
		"type": "toj",
		"soa": -100,
		"probe_key": "f",
		"reference_key": "j",
		"probe_element": {},
		"reference_element": {},
		"fixation_time": 400,
		"fixation_mark_html": "<img class='toj-fixation-mark absolute-position' src='./images/fixmark.png'></img>",
		"data": {
			"probeLeft": true,
			"salient": false
		},
		"response_key": "f",
		"response": "probe",
		"response_correct": true,
		"measured_soa": -101,
		"rt": 339,
		"probeLeft": true,
		"salient": false,
		"trial_type": "toj",
		"trial_index": 12,
		"time_elapsed": 30253,
		"internal_node_id": "0.0-3.0-0.9"
	},
	{
		"rt": 1573,
		"stimulus": "<p>You finished the tutorial.</p><p>Press any key to continue.</p>",
		"key_press": 32,
		"trial_type": "html-keyboard-response",
		"trial_index": 13,
		"time_elapsed": 31827,
		"internal_node_id": "0.0-4.0"
	},
	{
		"type": "toj",
		"soa": -50,
		"probe_key": "f",
		"reference_key": "j",
		"probe_element": {},
		"reference_element": {},
		"fixation_time": 400,
		"fixation_mark_html": "<img class='toj-fixation-mark absolute-position' src='./images/fixmark.png'></img>",
		"data": {
			"probeLeft": true,
			"salient": true
		},
		"response_key": "f",
		"response": "probe",
		"response_correct": true,
		"measured_soa": -51,
		"rt": 542,
		"probeLeft": true,
		"salient": true,
		"trial_type": "toj",
		"trial_index": 14,
		"time_elapsed": 32825,
		"internal_node_id": "0.0-5.0-0.0-0.0"
	},
	{
		"type": "toj",
		"soa": 0,
		"probe_key": "f",
		"reference_key": "j",
		"probe_element": {},
		"reference_element": {},
		"fixation_time": 400,
		"fixation_mark_html": "<img class='toj-fixation-mark absolute-position' src='./images/fixmark.png'></img>",
		"data": {
			"probeLeft": true,
			"salient": true
		},
		"response_key": "j",
		"response": "reference",
		"response_correct": true,
		"measured_soa": 0,
		"rt": 594,
		"probeLeft": true,
		"salient": true,
		"trial_type": "toj",
		"trial_index": 15,
		"time_elapsed": 33824,
		"internal_node_id": "0.0-5.0-0.0-0.1"
	},
	{
		"type": "toj",
		"soa": -100,
		"probe_key": "f",
		"reference_key": "j",
		"probe_element": {},
		"reference_element": {},
		"fixation_time": 400,
		"fixation_mark_html": "<img class='toj-fixation-mark absolute-position' src='./images/fixmark.png'></img>",
		"data": {
			"probeLeft": true,
			"salient": true
		},
		"response_key": "f",
		"response": "probe",
		"response_correct": true,
		"measured_soa": -102,
		"rt": 408,
		"probeLeft": true,
		"salient": true,
		"trial_type": "toj",
		"trial_index": 16,
		"time_elapsed": 34739,
		"internal_node_id": "0.0-5.0-0.0-0.2"
	},
	{
		"type": "toj",
		"soa": 0,
		"probe_key": "f",
		"reference_key": "j",
		"probe_element": {},
		"reference_element": {},
		"fixation_time": 400,
		"fixation_mark_html": "<img class='toj-fixation-mark absolute-position' src='./images/fixmark.png'></img>",
		"data": {
			"probeLeft": true,
			"salient": false
		},
		"response_key": "j",
		"response": "reference",
		"response_correct": true,
		"measured_soa": 0,
		"rt": 642,
		"probeLeft": true,
		"salient": false,
		"trial_type": "toj",
		"trial_index": 17,
		"time_elapsed": 35786,
		"internal_node_id": "0.0-5.0-0.0-0.3"
	},
	{
		"type": "toj",
		"soa": -50,
		"probe_key": "j",
		"reference_key": "f",
		"probe_element": {},
		"reference_element": {},
		"fixation_time": 400,
		"fixation_mark_html": "<img class='toj-fixation-mark absolute-position' src='./images/fixmark.png'></img>",
		"data": {
			"probeLeft": false,
			"salient": false
		},
		"response_key": "j",
		"response": "probe",
		"response_correct": true,
		"measured_soa": -51,
		"rt": 525,
		"probeLeft": false,
		"salient": false,
		"trial_type": "toj",
		"trial_index": 18,
		"time_elapsed": 36767,
		"internal_node_id": "0.0-5.0-0.0-0.4"
	},
	{
		"type": "toj",
		"soa": 150,
		"probe_key": "j",
		"reference_key": "f",
		"probe_element": {},
		"reference_element": {},
		"fixation_time": 400,
		"fixation_mark_html": "<img class='toj-fixation-mark absolute-position' src='./images/fixmark.png'></img>",
		"data": {
			"probeLeft": false,
			"salient": true
		},
		"response_key": "f",
		"response": "reference",
		"response_correct": true,
		"measured_soa": 151,
		"rt": 532,
		"probeLeft": false,
		"salient": true,
		"trial_type": "toj",
		"trial_index": 19,
		"time_elapsed": 37855,
		"internal_node_id": "0.0-5.0-0.0-0.5"
	},
	{
		"type": "toj",
		"soa": 50,
		"probe_key": "j",
		"reference_key": "f",
		"probe_element": {},
		"reference_element": {},
		"fixation_time": 400,
		"fixation_mark_html": "<img class='toj-fixation-mark absolute-position' src='./images/fixmark.png'></img>",
		"data": {
			"probeLeft": false,
			"salient": true
		},
		"response_key": "f",
		"response": "reference",
		"response_correct": true,
		"measured_soa": 51,
		"rt": 2246,
		"probeLeft": false,
		"salient": true,
		"trial_type": "toj",
		"trial_index": 20,
		"time_elapsed": 40557,
		"internal_node_id": "0.0-5.0-0.0-0.6"
	},
	{
		"type": "toj",
		"soa": -50,
		"probe_key": "f",
		"reference_key": "j",
		"probe_element": {},
		"reference_element": {},
		"fixation_time": 400,
		"fixation_mark_html": "<img class='toj-fixation-mark absolute-position' src='./images/fixmark.png'></img>",
		"data": {
			"probeLeft": true,
			"salient": false
		},
		"response_key": "j",
		"response": "reference",
		"response_correct": false,
		"measured_soa": -50,
		"rt": 651,
		"probeLeft": true,
		"salient": false,
		"trial_type": "toj",
		"trial_index": 21,
		"time_elapsed": 41664,
		"internal_node_id": "0.0-5.0-0.0-0.7"
	},
	{
		"type": "toj",
		"soa": 0,
		"probe_key": "j",
		"reference_key": "f",
		"probe_element": {},
		"reference_element": {},
		"fixation_time": 400,
		"fixation_mark_html": "<img class='toj-fixation-mark absolute-position' src='./images/fixmark.png'></img>",
		"data": {
			"probeLeft": false,
			"salient": false
		},
		"response_key": "f",
		"response": "reference",
		"response_correct": true,
		"measured_soa": 0,
		"rt": 816,
		"probeLeft": false,
		"salient": false,
		"trial_type": "toj",
		"trial_index": 22,
		"time_elapsed": 42884,
		"internal_node_id": "0.0-5.0-0.0-0.8"
	},
	{
		"type": "toj",
		"soa": -100,
		"probe_key": "j",
		"reference_key": "f",
		"probe_element": {},
		"reference_element": {},
		"fixation_time": 400,
		"fixation_mark_html": "<img class='toj-fixation-mark absolute-position' src='./images/fixmark.png'></img>",
		"data": {
			"probeLeft": false,
			"salient": true
		},
		"response_key": "j",
		"response": "probe",
		"response_correct": true,
		"measured_soa": -100,
		"rt": 388,
		"probeLeft": false,
		"salient": true,
		"trial_type": "toj",
		"trial_index": 23,
		"time_elapsed": 43777,
		"internal_node_id": "0.0-5.0-0.0-0.9"
	},
	{
		"type": "toj",
		"soa": 150,
		"probe_key": "j",
		"reference_key": "f",
		"probe_element": {},
		"reference_element": {},
		"fixation_time": 400,
		"fixation_mark_html": "<img class='toj-fixation-mark absolute-position' src='./images/fixmark.png'></img>",
		"data": {
			"probeLeft": false,
			"salient": false
		},
		"response_key": "f",
		"response": "reference",
		"response_correct": true,
		"measured_soa": 151,
		"rt": 377,
		"probeLeft": false,
		"salient": false,
		"trial_type": "toj",
		"trial_index": 24,
		"time_elapsed": 44708,
		"internal_node_id": "0.0-5.0-0.0-0.10"
	},
	{
		"type": "toj",
		"soa": 100,
		"probe_key": "f",
		"reference_key": "j",
		"probe_element": {},
		"reference_element": {},
		"fixation_time": 400,
		"fixation_mark_html": "<img class='toj-fixation-mark absolute-position' src='./images/fixmark.png'></img>",
		"data": {
			"probeLeft": true,
			"salient": false
		},
		"response_key": "j",
		"response": "reference",
		"response_correct": true,
		"measured_soa": 101,
		"rt": 387,
		"probeLeft": true,
		"salient": false,
		"trial_type": "toj",
		"trial_index": 25,
		"time_elapsed": 45602,
		"internal_node_id": "0.0-5.0-0.0-0.11"
	},
	{
		"type": "toj",
		"soa": -100,
		"probe_key": "f",
		"reference_key": "j",
		"probe_element": {},
		"reference_element": {},
		"fixation_time": 400,
		"fixation_mark_html": "<img class='toj-fixation-mark absolute-position' src='./images/fixmark.png'></img>",
		"data": {
			"probeLeft": true,
			"salient": false
		},
		"response_key": "f",
		"response": "probe",
		"response_correct": true,
		"measured_soa": -101,
		"rt": 378,
		"probeLeft": true,
		"salient": false,
		"trial_type": "toj",
		"trial_index": 26,
		"time_elapsed": 46484,
		"internal_node_id": "0.0-5.0-0.0-0.12"
	},
	{
		"type": "toj",
		"soa": -150,
		"probe_key": "j",
		"reference_key": "f",
		"probe_element": {},
		"reference_element": {},
		"fixation_time": 400,
		"fixation_mark_html": "<img class='toj-fixation-mark absolute-position' src='./images/fixmark.png'></img>",
		"data": {
			"probeLeft": false,
			"salient": true
		},
		"response_key": "j",
		"response": "probe",
		"response_correct": true,
		"measured_soa": -151,
		"rt": 501,
		"probeLeft": false,
		"salient": true,
		"trial_type": "toj",
		"trial_index": 27,
		"time_elapsed": 47541,
		"internal_node_id": "0.0-5.0-0.0-0.13"
	},
	{
		"type": "toj",
		"soa": 50,
		"probe_key": "f",
		"reference_key": "j",
		"probe_element": {},
		"reference_element": {},
		"fixation_time": 400,
		"fixation_mark_html": "<img class='toj-fixation-mark absolute-position' src='./images/fixmark.png'></img>",
		"data": {
			"probeLeft": true,
			"salient": false
		},
		"response_key": "j",
		"response": "reference",
		"response_correct": true,
		"measured_soa": 51,
		"rt": 598,
		"probeLeft": true,
		"salient": false,
		"trial_type": "toj",
		"trial_index": 28,
		"time_elapsed": 48595,
		"internal_node_id": "0.0-5.0-0.0-0.14"
	},
	{
		"type": "toj",
		"soa": 100,
		"probe_key": "f",
		"reference_key": "j",
		"probe_element": {},
		"reference_element": {},
		"fixation_time": 400,
		"fixation_mark_html": "<img class='toj-fixation-mark absolute-position' src='./images/fixmark.png'></img>",
		"data": {
			"probeLeft": true,
			"salient": true
		},
		"response_key": "j",
		"response": "reference",
		"response_correct": true,
		"measured_soa": 100,
		"rt": 440,
		"probeLeft": true,
		"salient": true,
		"trial_type": "toj",
		"trial_index": 29,
		"time_elapsed": 49540,
		"internal_node_id": "0.0-5.0-0.0-0.15"
	},
	{
		"type": "toj",
		"soa": 50,
		"probe_key": "f",
		"reference_key": "j",
		"probe_element": {},
		"reference_element": {},
		"fixation_time": 400,
		"fixation_mark_html": "<img class='toj-fixation-mark absolute-position' src='./images/fixmark.png'></img>",
		"data": {
			"probeLeft": true,
			"salient": true
		},
		"response_key": "j",
		"response": "reference",
		"response_correct": true,
		"measured_soa": 52,
		"rt": 531,
		"probeLeft": true,
		"salient": true,
		"trial_type": "toj",
		"trial_index": 30,
		"time_elapsed": 50527,
		"internal_node_id": "0.0-5.0-0.0-0.16"
	},
	{
		"type": "toj",
		"soa": 150,
		"probe_key": "f",
		"reference_key": "j",
		"probe_element": {},
		"reference_element": {},
		"fixation_time": 400,
		"fixation_mark_html": "<img class='toj-fixation-mark absolute-position' src='./images/fixmark.png'></img>",
		"data": {
			"probeLeft": true,
			"salient": false
		},
		"response_key": "j",
		"response": "reference",
		"response_correct": true,
		"measured_soa": 150,
		"rt": 3768,
		"probeLeft": true,
		"salient": false,
		"trial_type": "toj",
		"trial_index": 31,
		"time_elapsed": 54850,
		"internal_node_id": "0.0-5.0-0.0-0.17"
	},
	{
		"type": "toj",
		"soa": -150,
		"probe_key": "j",
		"reference_key": "f",
		"probe_element": {},
		"reference_element": {},
		"fixation_time": 400,
		"fixation_mark_html": "<img class='toj-fixation-mark absolute-position' src='./images/fixmark.png'></img>",
		"data": {
			"probeLeft": false,
			"salient": false
		},
		"response_key": "j",
		"response": "probe",
		"response_correct": true,
		"measured_soa": -151,
		"rt": 441,
		"probeLeft": false,
		"salient": false,
		"trial_type": "toj",
		"trial_index": 32,
		"time_elapsed": 55846,
		"internal_node_id": "0.0-5.0-0.0-0.18"
	},
	{
		"type": "toj",
		"soa": 150,
		"probe_key": "f",
		"reference_key": "j",
		"probe_element": {},
		"reference_element": {},
		"fixation_time": 400,
		"fixation_mark_html": "<img class='toj-fixation-mark absolute-position' src='./images/fixmark.png'></img>",
		"data": {
			"probeLeft": true,
			"salient": true
		},
		"response_key": "j",
		"response": "reference",
		"response_correct": true,
		"measured_soa": 150,
		"rt": 418,
		"probeLeft": true,
		"salient": true,
		"trial_type": "toj",
		"trial_index": 33,
		"time_elapsed": 56822,
		"internal_node_id": "0.0-5.0-0.0-0.19"
	},
	{
		"type": "toj",
		"soa": 0,
		"probe_key": "j",
		"reference_key": "f",
		"probe_element": {},
		"reference_element": {},
		"fixation_time": 400,
		"fixation_mark_html": "<img class='toj-fixation-mark absolute-position' src='./images/fixmark.png'></img>",
		"data": {
			"probeLeft": false,
			"salient": true
		},
		"response_key": "j",
		"response": "probe",
		"response_correct": true,
		"measured_soa": 0,
		"rt": 2545,
		"probeLeft": false,
		"salient": true,
		"trial_type": "toj",
		"trial_index": 34,
		"time_elapsed": 59772,
		"internal_node_id": "0.0-5.0-0.0-0.20"
	},
	{
		"type": "toj",
		"soa": -150,
		"probe_key": "f",
		"reference_key": "j",
		"probe_element": {},
		"reference_element": {},
		"fixation_time": 400,
		"fixation_mark_html": "<img class='toj-fixation-mark absolute-position' src='./images/fixmark.png'></img>",
		"data": {
			"probeLeft": true,
			"salient": true
		},
		"response_key": "f",
		"response": "probe",
		"response_correct": true,
		"measured_soa": -151,
		"rt": 476,
		"probeLeft": true,
		"salient": true,
		"trial_type": "toj",
		"trial_index": 35,
		"time_elapsed": 60803,
		"internal_node_id": "0.0-5.0-0.0-0.21"
	},
	{
		"type": "toj",
		"soa": 50,
		"probe_key": "j",
		"reference_key": "f",
		"probe_element": {},
		"reference_element": {},
		"fixation_time": 400,
		"fixation_mark_html": "<img class='toj-fixation-mark absolute-position' src='./images/fixmark.png'></img>",
		"data": {
			"probeLeft": false,
			"salient": false
		},
		"response_key": "f",
		"response": "reference",
		"response_correct": true,
		"measured_soa": 50,
		"rt": 1145,
		"probeLeft": false,
		"salient": false,
		"trial_type": "toj",
		"trial_index": 36,
		"time_elapsed": 62402,
		"internal_node_id": "0.0-5.0-0.0-0.22"
	},
	{
		"type": "toj",
		"soa": -50,
		"probe_key": "j",
		"reference_key": "f",
		"probe_element": {},
		"reference_element": {},
		"fixation_time": 400,
		"fixation_mark_html": "<img class='toj-fixation-mark absolute-position' src='./images/fixmark.png'></img>",
		"data": {
			"probeLeft": false,
			"salient": true
		},
		"response_key": "j",
		"response": "probe",
		"response_correct": true,
		"measured_soa": -50,
		"rt": 621,
		"probeLeft": false,
		"salient": true,
		"trial_type": "toj",
		"trial_index": 37,
		"time_elapsed": 63480,
		"internal_node_id": "0.0-5.0-0.0-0.23"
	},
	{
		"type": "toj",
		"soa": 100,
		"probe_key": "j",
		"reference_key": "f",
		"probe_element": {},
		"reference_element": {},
		"fixation_time": 400,
		"fixation_mark_html": "<img class='toj-fixation-mark absolute-position' src='./images/fixmark.png'></img>",
		"data": {
			"probeLeft": false,
			"salient": true
		},
		"response_key": "f",
		"response": "reference",
		"response_correct": true,
		"measured_soa": 101,
		"rt": 587,
		"probeLeft": false,
		"salient": true,
		"trial_type": "toj",
		"trial_index": 38,
		"time_elapsed": 64572,
		"internal_node_id": "0.0-5.0-0.0-0.24"
	},
	{
		"type": "toj",
		"soa": -100,
		"probe_key": "j",
		"reference_key": "f",
		"probe_element": {},
		"reference_element": {},
		"fixation_time": 400,
		"fixation_mark_html": "<img class='toj-fixation-mark absolute-position' src='./images/fixmark.png'></img>",
		"data": {
			"probeLeft": false,
			"salient": false
		},
		"response_key": "j",
		"response": "probe",
		"response_correct": true,
		"measured_soa": -101,
		"rt": 516,
		"probeLeft": false,
		"salient": false,
		"trial_type": "toj",
		"trial_index": 39,
		"time_elapsed": 65594,
		"internal_node_id": "0.0-5.0-0.0-0.25"
	},
	{
		"type": "toj",
		"soa": 100,
		"probe_key": "j",
		"reference_key": "f",
		"probe_element": {},
		"reference_element": {},
		"fixation_time": 400,
		"fixation_mark_html": "<img class='toj-fixation-mark absolute-position' src='./images/fixmark.png'></img>",
		"data": {
			"probeLeft": false,
			"salient": false
		},
		"response_key": "f",
		"response": "reference",
		"response_correct": true,
		"measured_soa": 101,
		"rt": 508,
		"probeLeft": false,
		"salient": false,
		"trial_type": "toj",
		"trial_index": 40,
		"time_elapsed": 66606,
		"internal_node_id": "0.0-5.0-0.0-0.26"
	},
	{
		"type": "toj",
		"soa": -150,
		"probe_key": "f",
		"reference_key": "j",
		"probe_element": {},
		"reference_element": {},
		"fixation_time": 400,
		"fixation_mark_html": "<img class='toj-fixation-mark absolute-position' src='./images/fixmark.png'></img>",
		"data": {
			"probeLeft": true,
			"salient": false
		},
		"response_key": "f",
		"response": "probe",
		"response_correct": true,
		"measured_soa": -150,
		"rt": 650,
		"probeLeft": true,
		"salient": false,
		"trial_type": "toj",
		"trial_index": 41,
		"time_elapsed": 67812,
		"internal_node_id": "0.0-5.0-0.0-0.27"
	},
	{
		"rt": 1169,
		"stimulus": "<p>You finished block 1 of 5.<p/><p>Press any key to continue.</p>",
		"key_press": 32,
		"trial_type": "html-keyboard-response",
		"trial_index": 42,
		"time_elapsed": 68982,
		"internal_node_id": "0.0-5.0-1.0"
	},
	{
		"type": "toj",
		"soa": -50,
		"probe_key": "j",
		"reference_key": "f",
		"probe_element": {},
		"reference_element": {},
		"fixation_time": 400,
		"fixation_mark_html": "<img class='toj-fixation-mark absolute-position' src='./images/fixmark.png'></img>",
		"data": {
			"probeLeft": false,
			"salient": true
		},
		"response_key": "j",
		"response": "probe",
		"response_correct": true,
		"measured_soa": -50,
		"rt": 503,
		"probeLeft": false,
		"salient": true,
		"trial_type": "toj",
		"trial_index": 43,
		"time_elapsed": 69942,
		"internal_node_id": "0.0-5.0-0.1-0.28"
	},
	{
		"type": "toj",
		"soa": -50,
		"probe_key": "j",
		"reference_key": "f",
		"probe_element": {},
		"reference_element": {},
		"fixation_time": 400,
		"fixation_mark_html": "<img class='toj-fixation-mark absolute-position' src='./images/fixmark.png'></img>",
		"data": {
			"probeLeft": false,
			"salient": false
		},
		"response_key": "j",
		"response": "probe",
		"response_correct": true,
		"measured_soa": -51,
		"rt": 535,
		"probeLeft": false,
		"salient": false,
		"trial_type": "toj",
		"trial_index": 44,
		"time_elapsed": 70935,
		"internal_node_id": "0.0-5.0-0.1-0.29"
	},
	{
		"type": "toj",
		"soa": -50,
		"probe_key": "f",
		"reference_key": "j",
		"probe_element": {},
		"reference_element": {},
		"fixation_time": 400,
		"fixation_mark_html": "<img class='toj-fixation-mark absolute-position' src='./images/fixmark.png'></img>",
		"data": {
			"probeLeft": true,
			"salient": false
		},
		"response_key": "f",
		"response": "probe",
		"response_correct": true,
		"measured_soa": -51,
		"rt": 516,
		"probeLeft": true,
		"salient": false,
		"trial_type": "toj",
		"trial_index": 45,
		"time_elapsed": 71906,
		"internal_node_id": "0.0-5.0-0.1-0.30"
	},
	{
		"type": "toj",
		"soa": -100,
		"probe_key": "j",
		"reference_key": "f",
		"probe_element": {},
		"reference_element": {},
		"fixation_time": 400,
		"fixation_mark_html": "<img class='toj-fixation-mark absolute-position' src='./images/fixmark.png'></img>",
		"data": {
			"probeLeft": false,
			"salient": true
		},
		"response_key": "j",
		"response": "probe",
		"response_correct": true,
		"measured_soa": -101,
		"rt": 1223,
		"probeLeft": false,
		"salient": true,
		"trial_type": "toj",
		"trial_index": 46,
		"time_elapsed": 73634,
		"internal_node_id": "0.0-5.0-0.1-0.31"
	},
	{
		"type": "toj",
		"soa": 100,
		"probe_key": "f",
		"reference_key": "j",
		"probe_element": {},
		"reference_element": {},
		"fixation_time": 400,
		"fixation_mark_html": "<img class='toj-fixation-mark absolute-position' src='./images/fixmark.png'></img>",
		"data": {
			"probeLeft": true,
			"salient": false
		},
		"response_key": "f",
		"response": "probe",
		"response_correct": false,
		"measured_soa": 100,
		"rt": 709,
		"probeLeft": true,
		"salient": false,
		"trial_type": "toj",
		"trial_index": 47,
		"time_elapsed": 74851,
		"internal_node_id": "0.0-5.0-0.1-0.32"
	},
	{
		"type": "toj",
		"soa": 150,
		"probe_key": "j",
		"reference_key": "f",
		"probe_element": {},
		"reference_element": {},
		"fixation_time": 400,
		"fixation_mark_html": "<img class='toj-fixation-mark absolute-position' src='./images/fixmark.png'></img>",
		"data": {
			"probeLeft": false,
			"salient": true
		},
		"response_key": "f",
		"response": "reference",
		"response_correct": true,
		"measured_soa": 150,
		"rt": 655,
		"probeLeft": false,
		"salient": true,
		"trial_type": "toj",
		"trial_index": 48,
		"time_elapsed": 76060,
		"internal_node_id": "0.0-5.0-0.1-0.33"
	},
	{
		"type": "toj",
		"soa": 100,
		"probe_key": "f",
		"reference_key": "j",
		"probe_element": {},
		"reference_element": {},
		"fixation_time": 400,
		"fixation_mark_html": "<img class='toj-fixation-mark absolute-position' src='./images/fixmark.png'></img>",
		"data": {
			"probeLeft": true,
			"salient": true
		},
		"response_key": "j",
		"response": "reference",
		"response_correct": true,
		"measured_soa": 100,
		"rt": 430,
		"probeLeft": true,
		"salient": true,
		"trial_type": "toj",
		"trial_index": 49,
		"time_elapsed": 76997,
		"internal_node_id": "0.0-5.0-0.1-0.34"
	},
	{
		"type": "toj",
		"soa": 50,
		"probe_key": "j",
		"reference_key": "f",
		"probe_element": {},
		"reference_element": {},
		"fixation_time": 400,
		"fixation_mark_html": "<img class='toj-fixation-mark absolute-position' src='./images/fixmark.png'></img>",
		"data": {
			"probeLeft": false,
			"salient": true
		},
		"response_key": "f",
		"response": "reference",
		"response_correct": true,
		"measured_soa": 49,
		"rt": 583,
		"probeLeft": false,
		"salient": true,
		"trial_type": "toj",
		"trial_index": 50,
		"time_elapsed": 78035,
		"internal_node_id": "0.0-5.0-0.1-0.35"
	},
	{
		"type": "toj",
		"soa": -150,
		"probe_key": "j",
		"reference_key": "f",
		"probe_element": {},
		"reference_element": {},
		"fixation_time": 400,
		"fixation_mark_html": "<img class='toj-fixation-mark absolute-position' src='./images/fixmark.png'></img>",
		"data": {
			"probeLeft": false,
			"salient": false
		},
		"response_key": "j",
		"response": "probe",
		"response_correct": true,
		"measured_soa": -151,
		"rt": 1062,
		"probeLeft": false,
		"salient": false,
		"trial_type": "toj",
		"trial_index": 51,
		"time_elapsed": 79653,
		"internal_node_id": "0.0-5.0-0.1-0.36"
	},
	{
		"type": "toj",
		"soa": -100,
		"probe_key": "f",
		"reference_key": "j",
		"probe_element": {},
		"reference_element": {},
		"fixation_time": 400,
		"fixation_mark_html": "<img class='toj-fixation-mark absolute-position' src='./images/fixmark.png'></img>",
		"data": {
			"probeLeft": true,
			"salient": true
		},
		"response_key": "f",
		"response": "probe",
		"response_correct": true,
		"measured_soa": -101,
		"rt": 655,
		"probeLeft": true,
		"salient": true,
		"trial_type": "toj",
		"trial_index": 52,
		"time_elapsed": 80812,
		"internal_node_id": "0.0-5.0-0.1-0.37"
	},
	{
		"type": "toj",
		"soa": 0,
		"probe_key": "j",
		"reference_key": "f",
		"probe_element": {},
		"reference_element": {},
		"fixation_time": 400,
		"fixation_mark_html": "<img class='toj-fixation-mark absolute-position' src='./images/fixmark.png'></img>",
		"data": {
			"probeLeft": false,
			"salient": false
		},
		"response_key": "j",
		"response": "probe",
		"response_correct": true,
		"measured_soa": 0,
		"rt": 532,
		"probeLeft": false,
		"salient": false,
		"trial_type": "toj",
		"trial_index": 53,
		"time_elapsed": 81748,
		"internal_node_id": "0.0-5.0-0.1-0.38"
	},
	{
		"type": "toj",
		"soa": -100,
		"probe_key": "j",
		"reference_key": "f",
		"probe_element": {},
		"reference_element": {},
		"fixation_time": 400,
		"fixation_mark_html": "<img class='toj-fixation-mark absolute-position' src='./images/fixmark.png'></img>",
		"data": {
			"probeLeft": false,
			"salient": false
		},
		"response_key": "j",
		"response": "probe",
		"response_correct": true,
		"measured_soa": -101,
		"rt": 1113,
		"probeLeft": false,
		"salient": false,
		"trial_type": "toj",
		"trial_index": 54,
		"time_elapsed": 83368,
		"internal_node_id": "0.0-5.0-0.1-0.39"
	},
	{
		"type": "toj",
		"soa": 50,
		"probe_key": "f",
		"reference_key": "j",
		"probe_element": {},
		"reference_element": {},
		"fixation_time": 400,
		"fixation_mark_html": "<img class='toj-fixation-mark absolute-position' src='./images/fixmark.png'></img>",
		"data": {
			"probeLeft": true,
			"salient": false
		},
		"response_key": "j",
		"response": "reference",
		"response_correct": true,
		"measured_soa": 51,
		"rt": 1776,
		"probeLeft": true,
		"salient": false,
		"trial_type": "toj",
		"trial_index": 55,
		"time_elapsed": 85598,
		"internal_node_id": "0.0-5.0-0.1-0.40"
	},
	{
		"type": "toj",
		"soa": 150,
		"probe_key": "f",
		"reference_key": "j",
		"probe_element": {},
		"reference_element": {},
		"fixation_time": 400,
		"fixation_mark_html": "<img class='toj-fixation-mark absolute-position' src='./images/fixmark.png'></img>",
		"data": {
			"probeLeft": true,
			"salient": true
		},
		"response_key": "j",
		"response": "reference",
		"response_correct": true,
		"measured_soa": 150,
		"rt": 459,
		"probeLeft": true,
		"salient": true,
		"trial_type": "toj",
		"trial_index": 56,
		"time_elapsed": 86612,
		"internal_node_id": "0.0-5.0-0.1-0.41"
	},
	{
		"type": "toj",
		"soa": 100,
		"probe_key": "j",
		"reference_key": "f",
		"probe_element": {},
		"reference_element": {},
		"fixation_time": 400,
		"fixation_mark_html": "<img class='toj-fixation-mark absolute-position' src='./images/fixmark.png'></img>",
		"data": {
			"probeLeft": false,
			"salient": true
		},
		"response_key": "f",
		"response": "reference",
		"response_correct": true,
		"measured_soa": 101,
		"rt": 855,
		"probeLeft": false,
		"salient": true,
		"trial_type": "toj",
		"trial_index": 57,
		"time_elapsed": 87972,
		"internal_node_id": "0.0-5.0-0.1-0.42"
	},
	{
		"type": "toj",
		"soa": 100,
		"probe_key": "j",
		"reference_key": "f",
		"probe_element": {},
		"reference_element": {},
		"fixation_time": 400,
		"fixation_mark_html": "<img class='toj-fixation-mark absolute-position' src='./images/fixmark.png'></img>",
		"data": {
			"probeLeft": false,
			"salient": false
		},
		"response_key": "f",
		"response": "reference",
		"response_correct": true,
		"measured_soa": 101,
		"rt": 504,
		"probeLeft": false,
		"salient": false,
		"trial_type": "toj",
		"trial_index": 58,
		"time_elapsed": 88981,
		"internal_node_id": "0.0-5.0-0.1-0.43"
	},
	{
		"type": "toj",
		"soa": 0,
		"probe_key": "f",
		"reference_key": "j",
		"probe_element": {},
		"reference_element": {},
		"fixation_time": 400,
		"fixation_mark_html": "<img class='toj-fixation-mark absolute-position' src='./images/fixmark.png'></img>",
		"data": {
			"probeLeft": true,
			"salient": false
		},
		"response_key": "j",
		"response": "reference",
		"response_correct": true,
		"measured_soa": 0,
		"rt": 716,
		"probeLeft": true,
		"salient": false,
		"trial_type": "toj",
		"trial_index": 59,
		"time_elapsed": 90101,
		"internal_node_id": "0.0-5.0-0.1-0.44"
	},
	{
		"type": "toj",
		"soa": -150,
		"probe_key": "j",
		"reference_key": "f",
		"probe_element": {},
		"reference_element": {},
		"fixation_time": 400,
		"fixation_mark_html": "<img class='toj-fixation-mark absolute-position' src='./images/fixmark.png'></img>",
		"data": {
			"probeLeft": false,
			"salient": true
		},
		"response_key": "j",
		"response": "probe",
		"response_correct": true,
		"measured_soa": -151,
		"rt": 625,
		"probeLeft": false,
		"salient": true,
		"trial_type": "toj",
		"trial_index": 60,
		"time_elapsed": 91281,
		"internal_node_id": "0.0-5.0-0.1-0.45"
	},
	{
		"type": "toj",
		"soa": 0,
		"probe_key": "f",
		"reference_key": "j",
		"probe_element": {},
		"reference_element": {},
		"fixation_time": 400,
		"fixation_mark_html": "<img class='toj-fixation-mark absolute-position' src='./images/fixmark.png'></img>",
		"data": {
			"probeLeft": true,
			"salient": true
		},
		"response_key": "j",
		"response": "reference",
		"response_correct": true,
		"measured_soa": 0,
		"rt": 954,
		"probeLeft": true,
		"salient": true,
		"trial_type": "toj",
		"trial_index": 61,
		"time_elapsed": 92640,
		"internal_node_id": "0.0-5.0-0.1-0.46"
	},
	{
		"type": "toj",
		"soa": 0,
		"probe_key": "j",
		"reference_key": "f",
		"probe_element": {},
		"reference_element": {},
		"fixation_time": 400,
		"fixation_mark_html": "<img class='toj-fixation-mark absolute-position' src='./images/fixmark.png'></img>",
		"data": {
			"probeLeft": false,
			"salient": true
		},
		"response_key": "f",
		"response": "reference",
		"response_correct": true,
		"measured_soa": 0,
		"rt": 869,
		"probeLeft": false,
		"salient": true,
		"trial_type": "toj",
		"trial_index": 62,
		"time_elapsed": 93912,
		"internal_node_id": "0.0-5.0-0.1-0.47"
	},
	{
		"type": "toj",
		"soa": -150,
		"probe_key": "f",
		"reference_key": "j",
		"probe_element": {},
		"reference_element": {},
		"fixation_time": 400,
		"fixation_mark_html": "<img class='toj-fixation-mark absolute-position' src='./images/fixmark.png'></img>",
		"data": {
			"probeLeft": true,
			"salient": false
		},
		"response_key": "f",
		"response": "probe",
		"response_correct": true,
		"measured_soa": -151,
		"rt": 752,
		"probeLeft": true,
		"salient": false,
		"trial_type": "toj",
		"trial_index": 63,
		"time_elapsed": 95219,
		"internal_node_id": "0.0-5.0-0.1-0.48"
	},
	{
		"type": "toj",
		"soa": -100,
		"probe_key": "f",
		"reference_key": "j",
		"probe_element": {},
		"reference_element": {},
		"fixation_time": 400,
		"fixation_mark_html": "<img class='toj-fixation-mark absolute-position' src='./images/fixmark.png'></img>",
		"data": {
			"probeLeft": true,
			"salient": false
		},
		"response_key": "f",
		"response": "probe",
		"response_correct": true,
		"measured_soa": -100,
		"rt": 989,
		"probeLeft": true,
		"salient": false,
		"trial_type": "toj",
		"trial_index": 64,
		"time_elapsed": 96713,
		"internal_node_id": "0.0-5.0-0.1-0.49"
	},
	{
		"type": "toj",
		"soa": 150,
		"probe_key": "f",
		"reference_key": "j",
		"probe_element": {},
		"reference_element": {},
		"fixation_time": 400,
		"fixation_mark_html": "<img class='toj-fixation-mark absolute-position' src='./images/fixmark.png'></img>",
		"data": {
			"probeLeft": true,
			"salient": false
		},
		"response_key": "f",
		"response": "probe",
		"response_correct": false,
		"measured_soa": 150,
		"rt": 714,
		"probeLeft": true,
		"salient": false,
		"trial_type": "toj",
		"trial_index": 65,
		"time_elapsed": 97980,
		"internal_node_id": "0.0-5.0-0.1-0.50"
	},
	{
		"type": "toj",
		"soa": -150,
		"probe_key": "f",
		"reference_key": "j",
		"probe_element": {},
		"reference_element": {},
		"fixation_time": 400,
		"fixation_mark_html": "<img class='toj-fixation-mark absolute-position' src='./images/fixmark.png'></img>",
		"data": {
			"probeLeft": true,
			"salient": true
		},
		"response_key": "f",
		"response": "probe",
		"response_correct": true,
		"measured_soa": -151,
		"rt": 466,
		"probeLeft": true,
		"salient": true,
		"trial_type": "toj",
		"trial_index": 66,
		"time_elapsed": 99003,
		"internal_node_id": "0.0-5.0-0.1-0.51"
	},
	{
		"type": "toj",
		"soa": 50,
		"probe_key": "j",
		"reference_key": "f",
		"probe_element": {},
		"reference_element": {},
		"fixation_time": 400,
		"fixation_mark_html": "<img class='toj-fixation-mark absolute-position' src='./images/fixmark.png'></img>",
		"data": {
			"probeLeft": false,
			"salient": false
		},
		"response_key": "f",
		"response": "reference",
		"response_correct": true,
		"measured_soa": 51,
		"rt": 558,
		"probeLeft": false,
		"salient": false,
		"trial_type": "toj",
		"trial_index": 67,
		"time_elapsed": 100015,
		"internal_node_id": "0.0-5.0-0.1-0.52"
	},
	{
		"type": "toj",
		"soa": 150,
		"probe_key": "j",
		"reference_key": "f",
		"probe_element": {},
		"reference_element": {},
		"fixation_time": 400,
		"fixation_mark_html": "<img class='toj-fixation-mark absolute-position' src='./images/fixmark.png'></img>",
		"data": {
			"probeLeft": false,
			"salient": false
		},
		"response_key": "f",
		"response": "reference",
		"response_correct": true,
		"measured_soa": 150,
		"rt": 450,
		"probeLeft": false,
		"salient": false,
		"trial_type": "toj",
		"trial_index": 68,
		"time_elapsed": 101019,
		"internal_node_id": "0.0-5.0-0.1-0.53"
	},
	{
		"type": "toj",
		"soa": 50,
		"probe_key": "f",
		"reference_key": "j",
		"probe_element": {},
		"reference_element": {},
		"fixation_time": 400,
		"fixation_mark_html": "<img class='toj-fixation-mark absolute-position' src='./images/fixmark.png'></img>",
		"data": {
			"probeLeft": true,
			"salient": true
		},
		"response_key": "j",
		"response": "reference",
		"response_correct": true,
		"measured_soa": 50,
		"rt": 872,
		"probeLeft": true,
		"salient": true,
		"trial_type": "toj",
		"trial_index": 69,
		"time_elapsed": 102346,
		"internal_node_id": "0.0-5.0-0.1-0.54"
	},
	{
		"type": "toj",
		"soa": -50,
		"probe_key": "f",
		"reference_key": "j",
		"probe_element": {},
		"reference_element": {},
		"fixation_time": 400,
		"fixation_mark_html": "<img class='toj-fixation-mark absolute-position' src='./images/fixmark.png'></img>",
		"data": {
			"probeLeft": true,
			"salient": true
		},
		"response_key": "f",
		"response": "probe",
		"response_correct": true,
		"measured_soa": -51,
		"rt": 631,
		"probeLeft": true,
		"salient": true,
		"trial_type": "toj",
		"trial_index": 70,
		"time_elapsed": 103432,
		"internal_node_id": "0.0-5.0-0.1-0.55"
	},
	{
		"rt": 655,
		"stimulus": "<p>You finished block 2 of 5.<p/><p>Press any key to continue.</p>",
		"key_press": 32,
		"trial_type": "html-keyboard-response",
		"trial_index": 71,
		"time_elapsed": 104088,
		"internal_node_id": "0.0-5.0-1.1"
	},
	{
		"type": "toj",
		"soa": 150,
		"probe_key": "f",
		"reference_key": "j",
		"probe_element": {},
		"reference_element": {},
		"fixation_time": 400,
		"fixation_mark_html": "<img class='toj-fixation-mark absolute-position' src='./images/fixmark.png'></img>",
		"data": {
			"probeLeft": true,
			"salient": false
		},
		"response_key": "j",
		"response": "reference",
		"response_correct": true,
		"measured_soa": 151,
		"rt": 418,
		"probeLeft": true,
		"salient": false,
		"trial_type": "toj",
		"trial_index": 72,
		"time_elapsed": 105062,
		"internal_node_id": "0.0-5.0-0.2-0.56"
	},
	{
		"type": "toj",
		"soa": 0,
		"probe_key": "f",
		"reference_key": "j",
		"probe_element": {},
		"reference_element": {},
		"fixation_time": 400,
		"fixation_mark_html": "<img class='toj-fixation-mark absolute-position' src='./images/fixmark.png'></img>",
		"data": {
			"probeLeft": true,
			"salient": false
		},
		"response_key": "j",
		"response": "reference",
		"response_correct": true,
		"measured_soa": 0,
		"rt": 760,
		"probeLeft": true,
		"salient": false,
		"trial_type": "toj",
		"trial_index": 73,
		"time_elapsed": 106226,
		"internal_node_id": "0.0-5.0-0.2-0.57"
	},
	{
		"type": "toj",
		"soa": 50,
		"probe_key": "f",
		"reference_key": "j",
		"probe_element": {},
		"reference_element": {},
		"fixation_time": 400,
		"fixation_mark_html": "<img class='toj-fixation-mark absolute-position' src='./images/fixmark.png'></img>",
		"data": {
			"probeLeft": true,
			"salient": false
		},
		"response_key": "j",
		"response": "reference",
		"response_correct": true,
		"measured_soa": 50,
		"rt": 569,
		"probeLeft": true,
		"salient": false,
		"trial_type": "toj",
		"trial_index": 74,
		"time_elapsed": 107249,
		"internal_node_id": "0.0-5.0-0.2-0.58"
	},
	{
		"type": "toj",
		"soa": 0,
		"probe_key": "j",
		"reference_key": "f",
		"probe_element": {},
		"reference_element": {},
		"fixation_time": 400,
		"fixation_mark_html": "<img class='toj-fixation-mark absolute-position' src='./images/fixmark.png'></img>",
		"data": {
			"probeLeft": false,
			"salient": false
		},
		"response_key": "j",
		"response": "probe",
		"response_correct": true,
		"measured_soa": 1,
		"rt": 669,
		"probeLeft": false,
		"salient": false,
		"trial_type": "toj",
		"trial_index": 75,
		"time_elapsed": 108324,
		"internal_node_id": "0.0-5.0-0.2-0.59"
	},
	{
		"type": "toj",
		"soa": 150,
		"probe_key": "f",
		"reference_key": "j",
		"probe_element": {},
		"reference_element": {},
		"fixation_time": 400,
		"fixation_mark_html": "<img class='toj-fixation-mark absolute-position' src='./images/fixmark.png'></img>",
		"data": {
			"probeLeft": true,
			"salient": true
		},
		"response_key": "j",
		"response": "reference",
		"response_correct": true,
		"measured_soa": 151,
		"rt": 377,
		"probeLeft": true,
		"salient": true,
		"trial_type": "toj",
		"trial_index": 76,
		"time_elapsed": 109257,
		"internal_node_id": "0.0-5.0-0.2-0.60"
	},
	{
		"type": "toj",
		"soa": -150,
		"probe_key": "f",
		"reference_key": "j",
		"probe_element": {},
		"reference_element": {},
		"fixation_time": 400,
		"fixation_mark_html": "<img class='toj-fixation-mark absolute-position' src='./images/fixmark.png'></img>",
		"data": {
			"probeLeft": true,
			"salient": true
		},
		"response_key": "f",
		"response": "probe",
		"response_correct": true,
		"measured_soa": -151,
		"rt": 313,
		"probeLeft": true,
		"salient": true,
		"trial_type": "toj",
		"trial_index": 77,
		"time_elapsed": 110128,
		"internal_node_id": "0.0-5.0-0.2-0.61"
	},
	{
		"type": "toj",
		"soa": 100,
		"probe_key": "j",
		"reference_key": "f",
		"probe_element": {},
		"reference_element": {},
		"fixation_time": 400,
		"fixation_mark_html": "<img class='toj-fixation-mark absolute-position' src='./images/fixmark.png'></img>",
		"data": {
			"probeLeft": false,
			"salient": false
		},
		"response_key": "f",
		"response": "reference",
		"response_correct": true,
		"measured_soa": 100,
		"rt": 455,
		"probeLeft": false,
		"salient": false,
		"trial_type": "toj",
		"trial_index": 78,
		"time_elapsed": 111086,
		"internal_node_id": "0.0-5.0-0.2-0.62"
	},
	{
		"type": "toj",
		"soa": 50,
		"probe_key": "f",
		"reference_key": "j",
		"probe_element": {},
		"reference_element": {},
		"fixation_time": 400,
		"fixation_mark_html": "<img class='toj-fixation-mark absolute-position' src='./images/fixmark.png'></img>",
		"data": {
			"probeLeft": true,
			"salient": true
		},
		"response_key": "j",
		"response": "reference",
		"response_correct": true,
		"measured_soa": 50,
		"rt": 493,
		"probeLeft": true,
		"salient": true,
		"trial_type": "toj",
		"trial_index": 79,
		"time_elapsed": 112035,
		"internal_node_id": "0.0-5.0-0.2-0.63"
	},
	{
		"type": "toj",
		"soa": -50,
		"probe_key": "j",
		"reference_key": "f",
		"probe_element": {},
		"reference_element": {},
		"fixation_time": 400,
		"fixation_mark_html": "<img class='toj-fixation-mark absolute-position' src='./images/fixmark.png'></img>",
		"data": {
			"probeLeft": false,
			"salient": false
		},
		"response_key": "j",
		"response": "probe",
		"response_correct": true,
		"measured_soa": -51,
		"rt": 1005,
		"probeLeft": false,
		"salient": false,
		"trial_type": "toj",
		"trial_index": 80,
		"time_elapsed": 113493,
		"internal_node_id": "0.0-5.0-0.2-0.64"
	},
	{
		"type": "toj",
		"soa": 50,
		"probe_key": "j",
		"reference_key": "f",
		"probe_element": {},
		"reference_element": {},
		"fixation_time": 400,
		"fixation_mark_html": "<img class='toj-fixation-mark absolute-position' src='./images/fixmark.png'></img>",
		"data": {
			"probeLeft": false,
			"salient": false
		},
		"response_key": "f",
		"response": "reference",
		"response_correct": true,
		"measured_soa": 51,
		"rt": 543,
		"probeLeft": false,
		"salient": false,
		"trial_type": "toj",
		"trial_index": 81,
		"time_elapsed": 114492,
		"internal_node_id": "0.0-5.0-0.2-0.65"
	},
	{
		"type": "toj",
		"soa": -100,
		"probe_key": "f",
		"reference_key": "j",
		"probe_element": {},
		"reference_element": {},
		"fixation_time": 400,
		"fixation_mark_html": "<img class='toj-fixation-mark absolute-position' src='./images/fixmark.png'></img>",
		"data": {
			"probeLeft": true,
			"salient": false
		},
		"response_key": "f",
		"response": "probe",
		"response_correct": true,
		"measured_soa": -100,
		"rt": 606,
		"probeLeft": true,
		"salient": false,
		"trial_type": "toj",
		"trial_index": 82,
		"time_elapsed": 115602,
		"internal_node_id": "0.0-5.0-0.2-0.66"
	},
	{
		"type": "toj",
		"soa": 100,
		"probe_key": "j",
		"reference_key": "f",
		"probe_element": {},
		"reference_element": {},
		"fixation_time": 400,
		"fixation_mark_html": "<img class='toj-fixation-mark absolute-position' src='./images/fixmark.png'></img>",
		"data": {
			"probeLeft": false,
			"salient": true
		},
		"response_key": "f",
		"response": "reference",
		"response_correct": true,
		"measured_soa": 100,
		"rt": 731,
		"probeLeft": false,
		"salient": true,
		"trial_type": "toj",
		"trial_index": 83,
		"time_elapsed": 116838,
		"internal_node_id": "0.0-5.0-0.2-0.67"
	},
	{
		"type": "toj",
		"soa": 100,
		"probe_key": "f",
		"reference_key": "j",
		"probe_element": {},
		"reference_element": {},
		"fixation_time": 400,
		"fixation_mark_html": "<img class='toj-fixation-mark absolute-position' src='./images/fixmark.png'></img>",
		"data": {
			"probeLeft": true,
			"salient": false
		},
		"response_key": "j",
		"response": "reference",
		"response_correct": true,
		"measured_soa": 100,
		"rt": 427,
		"probeLeft": true,
		"salient": false,
		"trial_type": "toj",
		"trial_index": 84,
		"time_elapsed": 117769,
		"internal_node_id": "0.0-5.0-0.2-0.68"
	},
	{
		"type": "toj",
		"soa": 0,
		"probe_key": "f",
		"reference_key": "j",
		"probe_element": {},
		"reference_element": {},
		"fixation_time": 400,
		"fixation_mark_html": "<img class='toj-fixation-mark absolute-position' src='./images/fixmark.png'></img>",
		"data": {
			"probeLeft": true,
			"salient": true
		},
		"response_key": "j",
		"response": "reference",
		"response_correct": true,
		"measured_soa": 1,
		"rt": 1075,
		"probeLeft": true,
		"salient": true,
		"trial_type": "toj",
		"trial_index": 85,
		"time_elapsed": 119249,
		"internal_node_id": "0.0-5.0-0.2-0.69"
	},
	{
		"type": "toj",
		"soa": -50,
		"probe_key": "j",
		"reference_key": "f",
		"probe_element": {},
		"reference_element": {},
		"fixation_time": 400,
		"fixation_mark_html": "<img class='toj-fixation-mark absolute-position' src='./images/fixmark.png'></img>",
		"data": {
			"probeLeft": false,
			"salient": true
		},
		"response_key": "j",
		"response": "probe",
		"response_correct": true,
		"measured_soa": -51,
		"rt": 522,
		"probeLeft": false,
		"salient": true,
		"trial_type": "toj",
		"trial_index": 86,
		"time_elapsed": 120224,
		"internal_node_id": "0.0-5.0-0.2-0.70"
	},
	{
		"type": "toj",
		"soa": -50,
		"probe_key": "f",
		"reference_key": "j",
		"probe_element": {},
		"reference_element": {},
		"fixation_time": 400,
		"fixation_mark_html": "<img class='toj-fixation-mark absolute-position' src='./images/fixmark.png'></img>",
		"data": {
			"probeLeft": true,
			"salient": false
		},
		"response_key": "f",
		"response": "probe",
		"response_correct": true,
		"measured_soa": -50,
		"rt": 669,
		"probeLeft": true,
		"salient": false,
		"trial_type": "toj",
		"trial_index": 87,
		"time_elapsed": 121349,
		"internal_node_id": "0.0-5.0-0.2-0.71"
	},
	{
		"type": "toj",
		"soa": 0,
		"probe_key": "j",
		"reference_key": "f",
		"probe_element": {},
		"reference_element": {},
		"fixation_time": 400,
		"fixation_mark_html": "<img class='toj-fixation-mark absolute-position' src='./images/fixmark.png'></img>",
		"data": {
			"probeLeft": false,
			"salient": true
		},
		"response_key": "j",
		"response": "probe",
		"response_correct": true,
		"measured_soa": 1,
		"rt": 592,
		"probeLeft": false,
		"salient": true,
		"trial_type": "toj",
		"trial_index": 88,
		"time_elapsed": 122347,
		"internal_node_id": "0.0-5.0-0.2-0.72"
	},
	{
		"type": "toj",
		"soa": -150,
		"probe_key": "j",
		"reference_key": "f",
		"probe_element": {},
		"reference_element": {},
		"fixation_time": 400,
		"fixation_mark_html": "<img class='toj-fixation-mark absolute-position' src='./images/fixmark.png'></img>",
		"data": {
			"probeLeft": false,
			"salient": true
		},
		"response_key": "j",
		"response": "probe",
		"response_correct": true,
		"measured_soa": -151,
		"rt": 776,
		"probeLeft": false,
		"salient": true,
		"trial_type": "toj",
		"trial_index": 89,
		"time_elapsed": 123677,
		"internal_node_id": "0.0-5.0-0.2-0.73"
	},
	{
		"type": "toj",
		"soa": -150,
		"probe_key": "f",
		"reference_key": "j",
		"probe_element": {},
		"reference_element": {},
		"fixation_time": 400,
		"fixation_mark_html": "<img class='toj-fixation-mark absolute-position' src='./images/fixmark.png'></img>",
		"data": {
			"probeLeft": true,
			"salient": false
		},
		"response_key": "f",
		"response": "probe",
		"response_correct": true,
		"measured_soa": -152,
		"rt": 957,
		"probeLeft": true,
		"salient": false,
		"trial_type": "toj",
		"trial_index": 90,
		"time_elapsed": 125191,
		"internal_node_id": "0.0-5.0-0.2-0.74"
	},
	{
		"type": "toj",
		"soa": -100,
		"probe_key": "j",
		"reference_key": "f",
		"probe_element": {},
		"reference_element": {},
		"fixation_time": 400,
		"fixation_mark_html": "<img class='toj-fixation-mark absolute-position' src='./images/fixmark.png'></img>",
		"data": {
			"probeLeft": false,
			"salient": false
		},
		"response_key": "j",
		"response": "probe",
		"response_correct": true,
		"measured_soa": -102,
		"rt": 689,
		"probeLeft": false,
		"salient": false,
		"trial_type": "toj",
		"trial_index": 91,
		"time_elapsed": 126387,
		"internal_node_id": "0.0-5.0-0.2-0.75"
	},
	{
		"type": "toj",
		"soa": -100,
		"probe_key": "j",
		"reference_key": "f",
		"probe_element": {},
		"reference_element": {},
		"fixation_time": 400,
		"fixation_mark_html": "<img class='toj-fixation-mark absolute-position' src='./images/fixmark.png'></img>",
		"data": {
			"probeLeft": false,
			"salient": true
		},
		"response_key": "j",
		"response": "probe",
		"response_correct": true,
		"measured_soa": -101,
		"rt": 1214,
		"probeLeft": false,
		"salient": true,
		"trial_type": "toj",
		"trial_index": 92,
		"time_elapsed": 128107,
		"internal_node_id": "0.0-5.0-0.2-0.76"
	},
	{
		"type": "toj",
		"soa": 150,
		"probe_key": "j",
		"reference_key": "f",
		"probe_element": {},
		"reference_element": {},
		"fixation_time": 400,
		"fixation_mark_html": "<img class='toj-fixation-mark absolute-position' src='./images/fixmark.png'></img>",
		"data": {
			"probeLeft": false,
			"salient": true
		},
		"response_key": "f",
		"response": "reference",
		"response_correct": true,
		"measured_soa": 150,
		"rt": 413,
		"probeLeft": false,
		"salient": true,
		"trial_type": "toj",
		"trial_index": 93,
		"time_elapsed": 129075,
		"internal_node_id": "0.0-5.0-0.2-0.77"
	},
	{
		"type": "toj",
		"soa": 100,
		"probe_key": "f",
		"reference_key": "j",
		"probe_element": {},
		"reference_element": {},
		"fixation_time": 400,
		"fixation_mark_html": "<img class='toj-fixation-mark absolute-position' src='./images/fixmark.png'></img>",
		"data": {
			"probeLeft": true,
			"salient": true
		},
		"response_key": "j",
		"response": "reference",
		"response_correct": true,
		"measured_soa": 100,
		"rt": 526,
		"probeLeft": true,
		"salient": true,
		"trial_type": "toj",
		"trial_index": 94,
		"time_elapsed": 130106,
		"internal_node_id": "0.0-5.0-0.2-0.78"
	},
	{
		"type": "toj",
		"soa": 50,
		"probe_key": "j",
		"reference_key": "f",
		"probe_element": {},
		"reference_element": {},
		"fixation_time": 400,
		"fixation_mark_html": "<img class='toj-fixation-mark absolute-position' src='./images/fixmark.png'></img>",
		"data": {
			"probeLeft": false,
			"salient": true
		},
		"response_key": "f",
		"response": "reference",
		"response_correct": true,
		"measured_soa": 51,
		"rt": 857,
		"probeLeft": false,
		"salient": true,
		"trial_type": "toj",
		"trial_index": 95,
		"time_elapsed": 131418,
		"internal_node_id": "0.0-5.0-0.2-0.79"
	},
	{
		"type": "toj",
		"soa": -100,
		"probe_key": "f",
		"reference_key": "j",
		"probe_element": {},
		"reference_element": {},
		"fixation_time": 400,
		"fixation_mark_html": "<img class='toj-fixation-mark absolute-position' src='./images/fixmark.png'></img>",
		"data": {
			"probeLeft": true,
			"salient": true
		},
		"response_key": "f",
		"response": "probe",
		"response_correct": true,
		"measured_soa": -101,
		"rt": 1110,
		"probeLeft": true,
		"salient": true,
		"trial_type": "toj",
		"trial_index": 96,
		"time_elapsed": 133034,
		"internal_node_id": "0.0-5.0-0.2-0.80"
	},
	{
		"type": "toj",
		"soa": -50,
		"probe_key": "f",
		"reference_key": "j",
		"probe_element": {},
		"reference_element": {},
		"fixation_time": 400,
		"fixation_mark_html": "<img class='toj-fixation-mark absolute-position' src='./images/fixmark.png'></img>",
		"data": {
			"probeLeft": true,
			"salient": true
		},
		"response_key": "f",
		"response": "probe",
		"response_correct": true,
		"measured_soa": -51,
		"rt": 1043,
		"probeLeft": true,
		"salient": true,
		"trial_type": "toj",
		"trial_index": 97,
		"time_elapsed": 134531,
		"internal_node_id": "0.0-5.0-0.2-0.81"
	},
	{
		"type": "toj",
		"soa": 150,
		"probe_key": "j",
		"reference_key": "f",
		"probe_element": {},
		"reference_element": {},
		"fixation_time": 400,
		"fixation_mark_html": "<img class='toj-fixation-mark absolute-position' src='./images/fixmark.png'></img>",
		"data": {
			"probeLeft": false,
			"salient": false
		},
		"response_key": "f",
		"response": "reference",
		"response_correct": true,
		"measured_soa": 150,
		"rt": 642,
		"probeLeft": false,
		"salient": false,
		"trial_type": "toj",
		"trial_index": 98,
		"time_elapsed": 135728,
		"internal_node_id": "0.0-5.0-0.2-0.82"
	},
	{
		"type": "toj",
		"soa": -150,
		"probe_key": "j",
		"reference_key": "f",
		"probe_element": {},
		"reference_element": {},
		"fixation_time": 400,
		"fixation_mark_html": "<img class='toj-fixation-mark absolute-position' src='./images/fixmark.png'></img>",
		"data": {
			"probeLeft": false,
			"salient": false
		},
		"response_key": "j",
		"response": "probe",
		"response_correct": true,
		"measured_soa": -151,
		"rt": 433,
		"probeLeft": false,
		"salient": false,
		"trial_type": "toj",
		"trial_index": 99,
		"time_elapsed": 136716,
		"internal_node_id": "0.0-5.0-0.2-0.83"
	},
	{
		"rt": 696,
		"stimulus": "<p>You finished block 3 of 5.<p/><p>Press any key to continue.</p>",
		"key_press": 32,
		"trial_type": "html-keyboard-response",
		"trial_index": 100,
		"time_elapsed": 137414,
		"internal_node_id": "0.0-5.0-1.2"
	},
	{
		"type": "toj",
		"soa": -50,
		"probe_key": "j",
		"reference_key": "f",
		"probe_element": {},
		"reference_element": {},
		"fixation_time": 400,
		"fixation_mark_html": "<img class='toj-fixation-mark absolute-position' src='./images/fixmark.png'></img>",
		"data": {
			"probeLeft": false,
			"salient": false
		},
		"response_key": "j",
		"response": "probe",
		"response_correct": true,
		"measured_soa": -51,
		"rt": 1009,
		"probeLeft": false,
		"salient": false,
		"trial_type": "toj",
		"trial_index": 101,
		"time_elapsed": 138876,
		"internal_node_id": "0.0-5.0-0.3-0.84"
	},
	{
		"type": "toj",
		"soa": -150,
		"probe_key": "j",
		"reference_key": "f",
		"probe_element": {},
		"reference_element": {},
		"fixation_time": 400,
		"fixation_mark_html": "<img class='toj-fixation-mark absolute-position' src='./images/fixmark.png'></img>",
		"data": {
			"probeLeft": false,
			"salient": true
		},
		"response_key": "j",
		"response": "probe",
		"response_correct": true,
		"measured_soa": -149,
		"rt": 719,
		"probeLeft": false,
		"salient": true,
		"trial_type": "toj",
		"trial_index": 102,
		"time_elapsed": 140150,
		"internal_node_id": "0.0-5.0-0.3-0.85"
	},
	{
		"type": "toj",
		"soa": -100,
		"probe_key": "f",
		"reference_key": "j",
		"probe_element": {},
		"reference_element": {},
		"fixation_time": 400,
		"fixation_mark_html": "<img class='toj-fixation-mark absolute-position' src='./images/fixmark.png'></img>",
		"data": {
			"probeLeft": true,
			"salient": false
		},
		"response_key": "f",
		"response": "probe",
		"response_correct": true,
		"measured_soa": -101,
		"rt": 414,
		"probeLeft": true,
		"salient": false,
		"trial_type": "toj",
		"trial_index": 103,
		"time_elapsed": 141071,
		"internal_node_id": "0.0-5.0-0.3-0.86"
	},
	{
		"type": "toj",
		"soa": 150,
		"probe_key": "j",
		"reference_key": "f",
		"probe_element": {},
		"reference_element": {},
		"fixation_time": 400,
		"fixation_mark_html": "<img class='toj-fixation-mark absolute-position' src='./images/fixmark.png'></img>",
		"data": {
			"probeLeft": false,
			"salient": true
		},
		"response_key": "f",
		"response": "reference",
		"response_correct": true,
		"measured_soa": 151,
		"rt": 426,
		"probeLeft": false,
		"salient": true,
		"trial_type": "toj",
		"trial_index": 104,
		"time_elapsed": 142052,
		"internal_node_id": "0.0-5.0-0.3-0.87"
	},
	{
		"type": "toj",
		"soa": 100,
		"probe_key": "f",
		"reference_key": "j",
		"probe_element": {},
		"reference_element": {},
		"fixation_time": 400,
		"fixation_mark_html": "<img class='toj-fixation-mark absolute-position' src='./images/fixmark.png'></img>",
		"data": {
			"probeLeft": true,
			"salient": true
		},
		"response_key": "j",
		"response": "reference",
		"response_correct": true,
		"measured_soa": 101,
		"rt": 486,
		"probeLeft": true,
		"salient": true,
		"trial_type": "toj",
		"trial_index": 105,
		"time_elapsed": 143046,
		"internal_node_id": "0.0-5.0-0.3-0.88"
	},
	{
		"type": "toj",
		"soa": 0,
		"probe_key": "j",
		"reference_key": "f",
		"probe_element": {},
		"reference_element": {},
		"fixation_time": 400,
		"fixation_mark_html": "<img class='toj-fixation-mark absolute-position' src='./images/fixmark.png'></img>",
		"data": {
			"probeLeft": false,
			"salient": true
		},
		"response_key": "j",
		"response": "probe",
		"response_correct": true,
		"measured_soa": 0,
		"rt": 1045,
		"probeLeft": false,
		"salient": true,
		"trial_type": "toj",
		"trial_index": 106,
		"time_elapsed": 144499,
		"internal_node_id": "0.0-5.0-0.3-0.89"
	},
	{
		"type": "toj",
		"soa": 100,
		"probe_key": "j",
		"reference_key": "f",
		"probe_element": {},
		"reference_element": {},
		"fixation_time": 400,
		"fixation_mark_html": "<img class='toj-fixation-mark absolute-position' src='./images/fixmark.png'></img>",
		"data": {
			"probeLeft": false,
			"salient": false
		},
		"response_key": "f",
		"response": "reference",
		"response_correct": true,
		"measured_soa": 100,
		"rt": 643,
		"probeLeft": false,
		"salient": false,
		"trial_type": "toj",
		"trial_index": 107,
		"time_elapsed": 145648,
		"internal_node_id": "0.0-5.0-0.3-0.90"
	},
	{
		"type": "toj",
		"soa": 50,
		"probe_key": "j",
		"reference_key": "f",
		"probe_element": {},
		"reference_element": {},
		"fixation_time": 400,
		"fixation_mark_html": "<img class='toj-fixation-mark absolute-position' src='./images/fixmark.png'></img>",
		"data": {
			"probeLeft": false,
			"salient": false
		},
		"response_key": "f",
		"response": "reference",
		"response_correct": true,
		"measured_soa": 50,
		"rt": 1417,
		"probeLeft": false,
		"salient": false,
		"trial_type": "toj",
		"trial_index": 108,
		"time_elapsed": 147520,
		"internal_node_id": "0.0-5.0-0.3-0.91"
	},
	{
		"type": "toj",
		"soa": -150,
		"probe_key": "j",
		"reference_key": "f",
		"probe_element": {},
		"reference_element": {},
		"fixation_time": 400,
		"fixation_mark_html": "<img class='toj-fixation-mark absolute-position' src='./images/fixmark.png'></img>",
		"data": {
			"probeLeft": false,
			"salient": false
		},
		"response_key": "j",
		"response": "probe",
		"response_correct": true,
		"measured_soa": -150,
		"rt": 446,
		"probeLeft": false,
		"salient": false,
		"trial_type": "toj",
		"trial_index": 109,
		"time_elapsed": 148521,
		"internal_node_id": "0.0-5.0-0.3-0.92"
	},
	{
		"type": "toj",
		"soa": 0,
		"probe_key": "j",
		"reference_key": "f",
		"probe_element": {},
		"reference_element": {},
		"fixation_time": 400,
		"fixation_mark_html": "<img class='toj-fixation-mark absolute-position' src='./images/fixmark.png'></img>",
		"data": {
			"probeLeft": false,
			"salient": false
		},
		"response_key": "j",
		"response": "probe",
		"response_correct": true,
		"measured_soa": 0,
		"rt": 737,
		"probeLeft": false,
		"salient": false,
		"trial_type": "toj",
		"trial_index": 110,
		"time_elapsed": 149662,
		"internal_node_id": "0.0-5.0-0.3-0.93"
	},
	{
		"type": "toj",
		"soa": -100,
		"probe_key": "j",
		"reference_key": "f",
		"probe_element": {},
		"reference_element": {},
		"fixation_time": 400,
		"fixation_mark_html": "<img class='toj-fixation-mark absolute-position' src='./images/fixmark.png'></img>",
		"data": {
			"probeLeft": false,
			"salient": true
		},
		"response_key": "j",
		"response": "probe",
		"response_correct": true,
		"measured_soa": -101,
		"rt": 416,
		"probeLeft": false,
		"salient": true,
		"trial_type": "toj",
		"trial_index": 111,
		"time_elapsed": 150582,
		"internal_node_id": "0.0-5.0-0.3-0.94"
	},
	{
		"type": "toj",
		"soa": -50,
		"probe_key": "j",
		"reference_key": "f",
		"probe_element": {},
		"reference_element": {},
		"fixation_time": 400,
		"fixation_mark_html": "<img class='toj-fixation-mark absolute-position' src='./images/fixmark.png'></img>",
		"data": {
			"probeLeft": false,
			"salient": true
		},
		"response_key": "j",
		"response": "probe",
		"response_correct": true,
		"measured_soa": -51,
		"rt": 525,
		"probeLeft": false,
		"salient": true,
		"trial_type": "toj",
		"trial_index": 112,
		"time_elapsed": 151563,
		"internal_node_id": "0.0-5.0-0.3-0.95"
	},
	{
		"type": "toj",
		"soa": -100,
		"probe_key": "j",
		"reference_key": "f",
		"probe_element": {},
		"reference_element": {},
		"fixation_time": 400,
		"fixation_mark_html": "<img class='toj-fixation-mark absolute-position' src='./images/fixmark.png'></img>",
		"data": {
			"probeLeft": false,
			"salient": false
		},
		"response_key": "j",
		"response": "probe",
		"response_correct": true,
		"measured_soa": -101,
		"rt": 464,
		"probeLeft": false,
		"salient": false,
		"trial_type": "toj",
		"trial_index": 113,
		"time_elapsed": 152532,
		"internal_node_id": "0.0-5.0-0.3-0.96"
	},
	{
		"type": "toj",
		"soa": 50,
		"probe_key": "f",
		"reference_key": "j",
		"probe_element": {},
		"reference_element": {},
		"fixation_time": 400,
		"fixation_mark_html": "<img class='toj-fixation-mark absolute-position' src='./images/fixmark.png'></img>",
		"data": {
			"probeLeft": true,
			"salient": false
		},
		"response_key": "j",
		"response": "reference",
		"response_correct": true,
		"measured_soa": 50,
		"rt": 455,
		"probeLeft": true,
		"salient": false,
		"trial_type": "toj",
		"trial_index": 114,
		"time_elapsed": 153441,
		"internal_node_id": "0.0-5.0-0.3-0.97"
	},
	{
		"type": "toj",
		"soa": -150,
		"probe_key": "f",
		"reference_key": "j",
		"probe_element": {},
		"reference_element": {},
		"fixation_time": 400,
		"fixation_mark_html": "<img class='toj-fixation-mark absolute-position' src='./images/fixmark.png'></img>",
		"data": {
			"probeLeft": true,
			"salient": true
		},
		"response_key": "f",
		"response": "probe",
		"response_correct": true,
		"measured_soa": -151,
		"rt": 377,
		"probeLeft": true,
		"salient": true,
		"trial_type": "toj",
		"trial_index": 115,
		"time_elapsed": 154373,
		"internal_node_id": "0.0-5.0-0.3-0.98"
	},
	{
		"type": "toj",
		"soa": -50,
		"probe_key": "f",
		"reference_key": "j",
		"probe_element": {},
		"reference_element": {},
		"fixation_time": 400,
		"fixation_mark_html": "<img class='toj-fixation-mark absolute-position' src='./images/fixmark.png'></img>",
		"data": {
			"probeLeft": true,
			"salient": true
		},
		"response_key": "f",
		"response": "probe",
		"response_correct": true,
		"measured_soa": -51,
		"rt": 572,
		"probeLeft": true,
		"salient": true,
		"trial_type": "toj",
		"trial_index": 116,
		"time_elapsed": 155400,
		"internal_node_id": "0.0-5.0-0.3-0.99"
	},
	{
		"type": "toj",
		"soa": 150,
		"probe_key": "f",
		"reference_key": "j",
		"probe_element": {},
		"reference_element": {},
		"fixation_time": 400,
		"fixation_mark_html": "<img class='toj-fixation-mark absolute-position' src='./images/fixmark.png'></img>",
		"data": {
			"probeLeft": true,
			"salient": false
		},
		"response_key": "j",
		"response": "reference",
		"response_correct": true,
		"measured_soa": 151,
		"rt": 626,
		"probeLeft": true,
		"salient": false,
		"trial_type": "toj",
		"trial_index": 117,
		"time_elapsed": 156581,
		"internal_node_id": "0.0-5.0-0.3-0.100"
	},
	{
		"type": "toj",
		"soa": -50,
		"probe_key": "f",
		"reference_key": "j",
		"probe_element": {},
		"reference_element": {},
		"fixation_time": 400,
		"fixation_mark_html": "<img class='toj-fixation-mark absolute-position' src='./images/fixmark.png'></img>",
		"data": {
			"probeLeft": true,
			"salient": false
		},
		"response_key": "f",
		"response": "probe",
		"response_correct": true,
		"measured_soa": -51,
		"rt": 493,
		"probeLeft": true,
		"salient": false,
		"trial_type": "toj",
		"trial_index": 118,
		"time_elapsed": 157529,
		"internal_node_id": "0.0-5.0-0.3-0.101"
	},
	{
		"type": "toj",
		"soa": 100,
		"probe_key": "f",
		"reference_key": "j",
		"probe_element": {},
		"reference_element": {},
		"fixation_time": 400,
		"fixation_mark_html": "<img class='toj-fixation-mark absolute-position' src='./images/fixmark.png'></img>",
		"data": {
			"probeLeft": true,
			"salient": false
		},
		"response_key": "j",
		"response": "reference",
		"response_correct": true,
		"measured_soa": 102,
		"rt": 389,
		"probeLeft": true,
		"salient": false,
		"trial_type": "toj",
		"trial_index": 119,
		"time_elapsed": 158422,
		"internal_node_id": "0.0-5.0-0.3-0.102"
	},
	{
		"type": "toj",
		"soa": 150,
		"probe_key": "j",
		"reference_key": "f",
		"probe_element": {},
		"reference_element": {},
		"fixation_time": 400,
		"fixation_mark_html": "<img class='toj-fixation-mark absolute-position' src='./images/fixmark.png'></img>",
		"data": {
			"probeLeft": false,
			"salient": false
		},
		"response_key": "f",
		"response": "reference",
		"response_correct": true,
		"measured_soa": 151,
		"rt": 1276,
		"probeLeft": false,
		"salient": false,
		"trial_type": "toj",
		"trial_index": 120,
		"time_elapsed": 160254,
		"internal_node_id": "0.0-5.0-0.3-0.103"
	},
	{
		"type": "toj",
		"soa": -150,
		"probe_key": "f",
		"reference_key": "j",
		"probe_element": {},
		"reference_element": {},
		"fixation_time": 400,
		"fixation_mark_html": "<img class='toj-fixation-mark absolute-position' src='./images/fixmark.png'></img>",
		"data": {
			"probeLeft": true,
			"salient": false
		},
		"response_key": "f",
		"response": "probe",
		"response_correct": true,
		"measured_soa": -149,
		"rt": 661,
		"probeLeft": true,
		"salient": false,
		"trial_type": "toj",
		"trial_index": 121,
		"time_elapsed": 161470,
		"internal_node_id": "0.0-5.0-0.3-0.104"
	},
	{
		"type": "toj",
		"soa": 100,
		"probe_key": "j",
		"reference_key": "f",
		"probe_element": {},
		"reference_element": {},
		"fixation_time": 400,
		"fixation_mark_html": "<img class='toj-fixation-mark absolute-position' src='./images/fixmark.png'></img>",
		"data": {
			"probeLeft": false,
			"salient": true
		},
		"response_key": "f",
		"response": "reference",
		"response_correct": true,
		"measured_soa": 100,
		"rt": 531,
		"probeLeft": false,
		"salient": true,
		"trial_type": "toj",
		"trial_index": 122,
		"time_elapsed": 162507,
		"internal_node_id": "0.0-5.0-0.3-0.105"
	},
	{
		"type": "toj",
		"soa": -100,
		"probe_key": "f",
		"reference_key": "j",
		"probe_element": {},
		"reference_element": {},
		"fixation_time": 400,
		"fixation_mark_html": "<img class='toj-fixation-mark absolute-position' src='./images/fixmark.png'></img>",
		"data": {
			"probeLeft": true,
			"salient": true
		},
		"response_key": "f",
		"response": "probe",
		"response_correct": true,
		"measured_soa": -101,
		"rt": 425,
		"probeLeft": true,
		"salient": true,
		"trial_type": "toj",
		"trial_index": 123,
		"time_elapsed": 163436,
		"internal_node_id": "0.0-5.0-0.3-0.106"
	},
	{
		"type": "toj",
		"soa": 50,
		"probe_key": "f",
		"reference_key": "j",
		"probe_element": {},
		"reference_element": {},
		"fixation_time": 400,
		"fixation_mark_html": "<img class='toj-fixation-mark absolute-position' src='./images/fixmark.png'></img>",
		"data": {
			"probeLeft": true,
			"salient": true
		},
		"response_key": "j",
		"response": "reference",
		"response_correct": true,
		"measured_soa": 51,
		"rt": 649,
		"probeLeft": true,
		"salient": true,
		"trial_type": "toj",
		"trial_index": 124,
		"time_elapsed": 164540,
		"internal_node_id": "0.0-5.0-0.3-0.107"
	},
	{
		"type": "toj",
		"soa": 50,
		"probe_key": "j",
		"reference_key": "f",
		"probe_element": {},
		"reference_element": {},
		"fixation_time": 400,
		"fixation_mark_html": "<img class='toj-fixation-mark absolute-position' src='./images/fixmark.png'></img>",
		"data": {
			"probeLeft": false,
			"salient": true
		},
		"response_key": "f",
		"response": "reference",
		"response_correct": true,
		"measured_soa": 50,
		"rt": 407,
		"probeLeft": false,
		"salient": true,
		"trial_type": "toj",
		"trial_index": 125,
		"time_elapsed": 165402,
		"internal_node_id": "0.0-5.0-0.3-0.108"
	},
	{
		"type": "toj",
		"soa": 0,
		"probe_key": "f",
		"reference_key": "j",
		"probe_element": {},
		"reference_element": {},
		"fixation_time": 400,
		"fixation_mark_html": "<img class='toj-fixation-mark absolute-position' src='./images/fixmark.png'></img>",
		"data": {
			"probeLeft": true,
			"salient": false
		},
		"response_key": "f",
		"response": "probe",
		"response_correct": true,
		"measured_soa": 0,
		"rt": 622,
		"probeLeft": true,
		"salient": false,
		"trial_type": "toj",
		"trial_index": 126,
		"time_elapsed": 166428,
		"internal_node_id": "0.0-5.0-0.3-0.109"
	},
	{
		"type": "toj",
		"soa": 0,
		"probe_key": "f",
		"reference_key": "j",
		"probe_element": {},
		"reference_element": {},
		"fixation_time": 400,
		"fixation_mark_html": "<img class='toj-fixation-mark absolute-position' src='./images/fixmark.png'></img>",
		"data": {
			"probeLeft": true,
			"salient": true
		},
		"response_key": "j",
		"response": "reference",
		"response_correct": true,
		"measured_soa": 0,
		"rt": 889,
		"probeLeft": true,
		"salient": true,
		"trial_type": "toj",
		"trial_index": 127,
		"time_elapsed": 167722,
		"internal_node_id": "0.0-5.0-0.3-0.110"
	},
	{
		"type": "toj",
		"soa": 150,
		"probe_key": "f",
		"reference_key": "j",
		"probe_element": {},
		"reference_element": {},
		"fixation_time": 400,
		"fixation_mark_html": "<img class='toj-fixation-mark absolute-position' src='./images/fixmark.png'></img>",
		"data": {
			"probeLeft": true,
			"salient": true
		},
		"response_key": "j",
		"response": "reference",
		"response_correct": true,
		"measured_soa": 151,
		"rt": 511,
		"probeLeft": true,
		"salient": true,
		"trial_type": "toj",
		"trial_index": 128,
		"time_elapsed": 168789,
		"internal_node_id": "0.0-5.0-0.3-0.111"
	},
	{
		"rt": 597,
		"stimulus": "<p>You finished block 4 of 5.<p/><p>Press any key to continue.</p>",
		"key_press": 32,
		"trial_type": "html-keyboard-response",
		"trial_index": 129,
		"time_elapsed": 169388,
		"internal_node_id": "0.0-5.0-1.3"
	},
	{
		"type": "toj",
		"soa": 100,
		"probe_key": "f",
		"reference_key": "j",
		"probe_element": {},
		"reference_element": {},
		"fixation_time": 400,
		"fixation_mark_html": "<img class='toj-fixation-mark absolute-position' src='./images/fixmark.png'></img>",
		"data": {
			"probeLeft": true,
			"salient": false
		},
		"response_key": "j",
		"response": "reference",
		"response_correct": true,
		"measured_soa": 101,
		"rt": 495,
		"probeLeft": true,
		"salient": false,
		"trial_type": "toj",
		"trial_index": 130,
		"time_elapsed": 170390,
		"internal_node_id": "0.0-5.0-0.4-0.112"
	},
	{
		"type": "toj",
		"soa": -100,
		"probe_key": "j",
		"reference_key": "f",
		"probe_element": {},
		"reference_element": {},
		"fixation_time": 400,
		"fixation_mark_html": "<img class='toj-fixation-mark absolute-position' src='./images/fixmark.png'></img>",
		"data": {
			"probeLeft": false,
			"salient": false
		},
		"response_key": "j",
		"response": "probe",
		"response_correct": true,
		"measured_soa": -100,
		"rt": 935,
		"probeLeft": false,
		"salient": false,
		"trial_type": "toj",
		"trial_index": 131,
		"time_elapsed": 171831,
		"internal_node_id": "0.0-5.0-0.4-0.113"
	},
	{
		"type": "toj",
		"soa": -150,
		"probe_key": "f",
		"reference_key": "j",
		"probe_element": {},
		"reference_element": {},
		"fixation_time": 400,
		"fixation_mark_html": "<img class='toj-fixation-mark absolute-position' src='./images/fixmark.png'></img>",
		"data": {
			"probeLeft": true,
			"salient": true
		},
		"response_key": "j",
		"response": "reference",
		"response_correct": false,
		"measured_soa": -151,
		"rt": 994,
		"probeLeft": true,
		"salient": true,
		"trial_type": "toj",
		"trial_index": 132,
		"time_elapsed": 173379,
		"internal_node_id": "0.0-5.0-0.4-0.114"
	},
	{
		"type": "toj",
		"soa": 50,
		"probe_key": "j",
		"reference_key": "f",
		"probe_element": {},
		"reference_element": {},
		"fixation_time": 400,
		"fixation_mark_html": "<img class='toj-fixation-mark absolute-position' src='./images/fixmark.png'></img>",
		"data": {
			"probeLeft": false,
			"salient": false
		},
		"response_key": "f",
		"response": "reference",
		"response_correct": true,
		"measured_soa": 51,
		"rt": 1255,
		"probeLeft": false,
		"salient": false,
		"trial_type": "toj",
		"trial_index": 133,
		"time_elapsed": 175090,
		"internal_node_id": "0.0-5.0-0.4-0.115"
	},
	{
		"type": "toj",
		"soa": 100,
		"probe_key": "f",
		"reference_key": "j",
		"probe_element": {},
		"reference_element": {},
		"fixation_time": 400,
		"fixation_mark_html": "<img class='toj-fixation-mark absolute-position' src='./images/fixmark.png'></img>",
		"data": {
			"probeLeft": true,
			"salient": true
		},
		"response_key": "j",
		"response": "reference",
		"response_correct": true,
		"measured_soa": 102,
		"rt": 401,
		"probeLeft": true,
		"salient": true,
		"trial_type": "toj",
		"trial_index": 134,
		"time_elapsed": 175996,
		"internal_node_id": "0.0-5.0-0.4-0.116"
	},
	{
		"type": "toj",
		"soa": 0,
		"probe_key": "j",
		"reference_key": "f",
		"probe_element": {},
		"reference_element": {},
		"fixation_time": 400,
		"fixation_mark_html": "<img class='toj-fixation-mark absolute-position' src='./images/fixmark.png'></img>",
		"data": {
			"probeLeft": false,
			"salient": false
		},
		"response_key": "j",
		"response": "probe",
		"response_correct": true,
		"measured_soa": 0,
		"rt": 640,
		"probeLeft": false,
		"salient": false,
		"trial_type": "toj",
		"trial_index": 135,
		"time_elapsed": 177040,
		"internal_node_id": "0.0-5.0-0.4-0.117"
	},
	{
		"type": "toj",
		"soa": -150,
		"probe_key": "j",
		"reference_key": "f",
		"probe_element": {},
		"reference_element": {},
		"fixation_time": 400,
		"fixation_mark_html": "<img class='toj-fixation-mark absolute-position' src='./images/fixmark.png'></img>",
		"data": {
			"probeLeft": false,
			"salient": false
		},
		"response_key": "j",
		"response": "probe",
		"response_correct": true,
		"measured_soa": -151,
		"rt": 693,
		"probeLeft": false,
		"salient": false,
		"trial_type": "toj",
		"trial_index": 136,
		"time_elapsed": 178287,
		"internal_node_id": "0.0-5.0-0.4-0.118"
	},
	{
		"type": "toj",
		"soa": -50,
		"probe_key": "f",
		"reference_key": "j",
		"probe_element": {},
		"reference_element": {},
		"fixation_time": 400,
		"fixation_mark_html": "<img class='toj-fixation-mark absolute-position' src='./images/fixmark.png'></img>",
		"data": {
			"probeLeft": true,
			"salient": true
		},
		"response_key": "j",
		"response": "reference",
		"response_correct": false,
		"measured_soa": -51,
		"rt": 772,
		"probeLeft": true,
		"salient": true,
		"trial_type": "toj",
		"trial_index": 137,
		"time_elapsed": 179514,
		"internal_node_id": "0.0-5.0-0.4-0.119"
	},
	{
		"type": "toj",
		"soa": -100,
		"probe_key": "f",
		"reference_key": "j",
		"probe_element": {},
		"reference_element": {},
		"fixation_time": 400,
		"fixation_mark_html": "<img class='toj-fixation-mark absolute-position' src='./images/fixmark.png'></img>",
		"data": {
			"probeLeft": true,
			"salient": true
		},
		"response_key": "f",
		"response": "probe",
		"response_correct": true,
		"measured_soa": -101,
		"rt": 449,
		"probeLeft": true,
		"salient": true,
		"trial_type": "toj",
		"trial_index": 138,
		"time_elapsed": 180467,
		"internal_node_id": "0.0-5.0-0.4-0.120"
	},
	{
		"type": "toj",
		"soa": -100,
		"probe_key": "f",
		"reference_key": "j",
		"probe_element": {},
		"reference_element": {},
		"fixation_time": 400,
		"fixation_mark_html": "<img class='toj-fixation-mark absolute-position' src='./images/fixmark.png'></img>",
		"data": {
			"probeLeft": true,
			"salient": false
		},
		"response_key": "f",
		"response": "probe",
		"response_correct": true,
		"measured_soa": -100,
		"rt": 1198,
		"probeLeft": true,
		"salient": false,
		"trial_type": "toj",
		"trial_index": 139,
		"time_elapsed": 182170,
		"internal_node_id": "0.0-5.0-0.4-0.121"
	},
	{
		"type": "toj",
		"soa": 150,
		"probe_key": "j",
		"reference_key": "f",
		"probe_element": {},
		"reference_element": {},
		"fixation_time": 400,
		"fixation_mark_html": "<img class='toj-fixation-mark absolute-position' src='./images/fixmark.png'></img>",
		"data": {
			"probeLeft": false,
			"salient": true
		},
		"response_key": "f",
		"response": "reference",
		"response_correct": true,
		"measured_soa": 151,
		"rt": 615,
		"probeLeft": false,
		"salient": true,
		"trial_type": "toj",
		"trial_index": 140,
		"time_elapsed": 183339,
		"internal_node_id": "0.0-5.0-0.4-0.122"
	},
	{
		"type": "toj",
		"soa": 50,
		"probe_key": "j",
		"reference_key": "f",
		"probe_element": {},
		"reference_element": {},
		"fixation_time": 400,
		"fixation_mark_html": "<img class='toj-fixation-mark absolute-position' src='./images/fixmark.png'></img>",
		"data": {
			"probeLeft": false,
			"salient": true
		},
		"response_key": "f",
		"response": "reference",
		"response_correct": true,
		"measured_soa": 50,
		"rt": 484,
		"probeLeft": false,
		"salient": true,
		"trial_type": "toj",
		"trial_index": 141,
		"time_elapsed": 184277,
		"internal_node_id": "0.0-5.0-0.4-0.123"
	},
	{
		"type": "toj",
		"soa": -50,
		"probe_key": "j",
		"reference_key": "f",
		"probe_element": {},
		"reference_element": {},
		"fixation_time": 400,
		"fixation_mark_html": "<img class='toj-fixation-mark absolute-position' src='./images/fixmark.png'></img>",
		"data": {
			"probeLeft": false,
			"salient": true
		},
		"response_key": "j",
		"response": "probe",
		"response_correct": true,
		"measured_soa": -50,
		"rt": 416,
		"probeLeft": false,
		"salient": true,
		"trial_type": "toj",
		"trial_index": 142,
		"time_elapsed": 185147,
		"internal_node_id": "0.0-5.0-0.4-0.124"
	},
	{
		"type": "toj",
		"soa": 100,
		"probe_key": "j",
		"reference_key": "f",
		"probe_element": {},
		"reference_element": {},
		"fixation_time": 400,
		"fixation_mark_html": "<img class='toj-fixation-mark absolute-position' src='./images/fixmark.png'></img>",
		"data": {
			"probeLeft": false,
			"salient": true
		},
		"response_key": "f",
		"response": "reference",
		"response_correct": true,
		"measured_soa": 101,
		"rt": 393,
		"probeLeft": false,
		"salient": true,
		"trial_type": "toj",
		"trial_index": 143,
		"time_elapsed": 186045,
		"internal_node_id": "0.0-5.0-0.4-0.125"
	},
	{
		"type": "toj",
		"soa": -150,
		"probe_key": "f",
		"reference_key": "j",
		"probe_element": {},
		"reference_element": {},
		"fixation_time": 400,
		"fixation_mark_html": "<img class='toj-fixation-mark absolute-position' src='./images/fixmark.png'></img>",
		"data": {
			"probeLeft": true,
			"salient": false
		},
		"response_key": "f",
		"response": "probe",
		"response_correct": true,
		"measured_soa": -150,
		"rt": 862,
		"probeLeft": true,
		"salient": false,
		"trial_type": "toj",
		"trial_index": 144,
		"time_elapsed": 187462,
		"internal_node_id": "0.0-5.0-0.4-0.126"
	},
	{
		"type": "toj",
		"soa": 0,
		"probe_key": "f",
		"reference_key": "j",
		"probe_element": {},
		"reference_element": {},
		"fixation_time": 400,
		"fixation_mark_html": "<img class='toj-fixation-mark absolute-position' src='./images/fixmark.png'></img>",
		"data": {
			"probeLeft": true,
			"salient": false
		},
		"response_key": "j",
		"response": "reference",
		"response_correct": true,
		"measured_soa": 0,
		"rt": 611,
		"probeLeft": true,
		"salient": false,
		"trial_type": "toj",
		"trial_index": 145,
		"time_elapsed": 188475,
		"internal_node_id": "0.0-5.0-0.4-0.127"
	},
	{
		"type": "toj",
		"soa": -50,
		"probe_key": "j",
		"reference_key": "f",
		"probe_element": {},
		"reference_element": {},
		"fixation_time": 400,
		"fixation_mark_html": "<img class='toj-fixation-mark absolute-position' src='./images/fixmark.png'></img>",
		"data": {
			"probeLeft": false,
			"salient": false
		},
		"response_key": "j",
		"response": "probe",
		"response_correct": true,
		"measured_soa": -51,
		"rt": 615,
		"probeLeft": false,
		"salient": false,
		"trial_type": "toj",
		"trial_index": 146,
		"time_elapsed": 189545,
		"internal_node_id": "0.0-5.0-0.4-0.128"
	},
	{
		"type": "toj",
		"soa": -50,
		"probe_key": "f",
		"reference_key": "j",
		"probe_element": {},
		"reference_element": {},
		"fixation_time": 400,
		"fixation_mark_html": "<img class='toj-fixation-mark absolute-position' src='./images/fixmark.png'></img>",
		"data": {
			"probeLeft": true,
			"salient": false
		},
		"response_key": "j",
		"response": "reference",
		"response_correct": false,
		"measured_soa": -50,
		"rt": 1576,
		"probeLeft": true,
		"salient": false,
		"trial_type": "toj",
		"trial_index": 147,
		"time_elapsed": 191574,
		"internal_node_id": "0.0-5.0-0.4-0.129"
	},
	{
		"type": "toj",
		"soa": 0,
		"probe_key": "j",
		"reference_key": "f",
		"probe_element": {},
		"reference_element": {},
		"fixation_time": 400,
		"fixation_mark_html": "<img class='toj-fixation-mark absolute-position' src='./images/fixmark.png'></img>",
		"data": {
			"probeLeft": false,
			"salient": true
		},
		"response_key": "f",
		"response": "reference",
		"response_correct": true,
		"measured_soa": 0,
		"rt": 497,
		"probeLeft": false,
		"salient": true,
		"trial_type": "toj",
		"trial_index": 148,
		"time_elapsed": 192476,
		"internal_node_id": "0.0-5.0-0.4-0.130"
	},
	{
		"type": "toj",
		"soa": -150,
		"probe_key": "j",
		"reference_key": "f",
		"probe_element": {},
		"reference_element": {},
		"fixation_time": 400,
		"fixation_mark_html": "<img class='toj-fixation-mark absolute-position' src='./images/fixmark.png'></img>",
		"data": {
			"probeLeft": false,
			"salient": true
		},
		"response_key": "j",
		"response": "probe",
		"response_correct": true,
		"measured_soa": -151,
		"rt": 377,
		"probeLeft": false,
		"salient": true,
		"trial_type": "toj",
		"trial_index": 149,
		"time_elapsed": 193409,
		"internal_node_id": "0.0-5.0-0.4-0.131"
	},
	{
		"type": "toj",
		"soa": 50,
		"probe_key": "f",
		"reference_key": "j",
		"probe_element": {},
		"reference_element": {},
		"fixation_time": 400,
		"fixation_mark_html": "<img class='toj-fixation-mark absolute-position' src='./images/fixmark.png'></img>",
		"data": {
			"probeLeft": true,
			"salient": true
		},
		"response_key": "j",
		"response": "reference",
		"response_correct": true,
		"measured_soa": 50,
		"rt": 474,
		"probeLeft": true,
		"salient": true,
		"trial_type": "toj",
		"trial_index": 150,
		"time_elapsed": 194340,
		"internal_node_id": "0.0-5.0-0.4-0.132"
	},
	{
		"type": "toj",
		"soa": 100,
		"probe_key": "j",
		"reference_key": "f",
		"probe_element": {},
		"reference_element": {},
		"fixation_time": 400,
		"fixation_mark_html": "<img class='toj-fixation-mark absolute-position' src='./images/fixmark.png'></img>",
		"data": {
			"probeLeft": false,
			"salient": false
		},
		"response_key": "f",
		"response": "reference",
		"response_correct": true,
		"measured_soa": 101,
		"rt": 426,
		"probeLeft": false,
		"salient": false,
		"trial_type": "toj",
		"trial_index": 151,
		"time_elapsed": 195272,
		"internal_node_id": "0.0-5.0-0.4-0.133"
	},
	{
		"type": "toj",
		"soa": 50,
		"probe_key": "f",
		"reference_key": "j",
		"probe_element": {},
		"reference_element": {},
		"fixation_time": 400,
		"fixation_mark_html": "<img class='toj-fixation-mark absolute-position' src='./images/fixmark.png'></img>",
		"data": {
			"probeLeft": true,
			"salient": false
		},
		"response_key": "j",
		"response": "reference",
		"response_correct": true,
		"measured_soa": 50,
		"rt": 1041,
		"probeLeft": true,
		"salient": false,
		"trial_type": "toj",
		"trial_index": 152,
		"time_elapsed": 196769,
		"internal_node_id": "0.0-5.0-0.4-0.134"
	},
	{
		"type": "toj",
		"soa": -100,
		"probe_key": "j",
		"reference_key": "f",
		"probe_element": {},
		"reference_element": {},
		"fixation_time": 400,
		"fixation_mark_html": "<img class='toj-fixation-mark absolute-position' src='./images/fixmark.png'></img>",
		"data": {
			"probeLeft": false,
			"salient": true
		},
		"response_key": "j",
		"response": "probe",
		"response_correct": true,
		"measured_soa": -100,
		"rt": 782,
		"probeLeft": false,
		"salient": true,
		"trial_type": "toj",
		"trial_index": 153,
		"time_elapsed": 198055,
		"internal_node_id": "0.0-5.0-0.4-0.135"
	},
	{
		"type": "toj",
		"soa": 0,
		"probe_key": "f",
		"reference_key": "j",
		"probe_element": {},
		"reference_element": {},
		"fixation_time": 400,
		"fixation_mark_html": "<img class='toj-fixation-mark absolute-position' src='./images/fixmark.png'></img>",
		"data": {
			"probeLeft": true,
			"salient": true
		},
		"response_key": "j",
		"response": "reference",
		"response_correct": true,
		"measured_soa": 1,
		"rt": 562,
		"probeLeft": true,
		"salient": true,
		"trial_type": "toj",
		"trial_index": 154,
		"time_elapsed": 199022,
		"internal_node_id": "0.0-5.0-0.4-0.136"
	},
	{
		"type": "toj",
		"soa": 150,
		"probe_key": "j",
		"reference_key": "f",
		"probe_element": {},
		"reference_element": {},
		"fixation_time": 400,
		"fixation_mark_html": "<img class='toj-fixation-mark absolute-position' src='./images/fixmark.png'></img>",
		"data": {
			"probeLeft": false,
			"salient": false
		},
		"response_key": "j",
		"response": "probe",
		"response_correct": false,
		"measured_soa": 151,
		"rt": 847,
		"probeLeft": false,
		"salient": false,
		"trial_type": "toj",
		"trial_index": 155,
		"time_elapsed": 200423,
		"internal_node_id": "0.0-5.0-0.4-0.137"
	},
	{
		"type": "toj",
		"soa": 150,
		"probe_key": "f",
		"reference_key": "j",
		"probe_element": {},
		"reference_element": {},
		"fixation_time": 400,
		"fixation_mark_html": "<img class='toj-fixation-mark absolute-position' src='./images/fixmark.png'></img>",
		"data": {
			"probeLeft": true,
			"salient": false
		},
		"response_key": "j",
		"response": "reference",
		"response_correct": true,
		"measured_soa": 151,
		"rt": 515,
		"probeLeft": true,
		"salient": false,
		"trial_type": "toj",
		"trial_index": 156,
		"time_elapsed": 201492,
		"internal_node_id": "0.0-5.0-0.4-0.138"
	},
	{
		"type": "toj",
		"soa": 150,
		"probe_key": "f",
		"reference_key": "j",
		"probe_element": {},
		"reference_element": {},
		"fixation_time": 400,
		"fixation_mark_html": "<img class='toj-fixation-mark absolute-position' src='./images/fixmark.png'></img>",
		"data": {
			"probeLeft": true,
			"salient": true
		},
		"response_key": "j",
		"response": "reference",
		"response_correct": true,
		"measured_soa": 151,
		"rt": 3082,
		"probeLeft": true,
		"salient": true,
		"trial_type": "toj",
		"trial_index": 157,
		"time_elapsed": 205129,
		"internal_node_id": "0.0-5.0-0.4-0.139"
	},
	{
		"rt": 724,
		"stimulus": "<p>This part of the experiment is finished. Press any key to save the results!</p>",
		"key_press": 32,
		"trial_type": "html-keyboard-response",
		"trial_index": 158,
		"time_elapsed": 205853,
		"internal_node_id": "0.0-5.0-1.4"
	}
]
