[
	{
		"rt": 3161,
		"responses": "{\"Q0\":\"5\"}",
		"userAgent": "Mozilla/5.0 (Macintosh; Intel Mac OS X 10_13_6) AppleWebKit/537.36 (KHTML, like Gecko) Chrome/79.0.3945.117 Safari/537.36",
		"trial_type": "survey-text",
		"trial_index": 0,
		"time_elapsed": 3166,
		"internal_node_id": "0.0-0.0"
	},
	{
		"success": true,
		"trial_type": "fullscreen",
		"trial_index": 1,
		"time_elapsed": 4807,
		"internal_node_id": "0.0-1.0"
	},
	{
		"rt": 838,
		"stimulus": "\n      <p style=\"text-align: center;\"><strong>Willkommen zum Experiment.</strong></p>\n      <p>Bevor Sie das Experiment fortf&uuml;hren k&ouml;nnen, fragen Sie sich, ob Sie die drei unteren Fragen bejaht beantworten k&ouml;nnen.</p>\n      <ol>\n      <li>Sind Sie in einer Umgebung, in der Sie ungest&ouml;rt f&uuml;r [X] Minuten an dem Experiment teilnehmen k&ouml;nnen?</li>\n      <li>Haben Sie elektronische Ger&auml;te, au&szlig;er das Ger&auml;t an dem Sie gerade teilnehmen, ausgeschaltet oder in den Flugmodus gestellt?</li>\n      <li>F&uuml;hlen Sie sich momentan wohl?</li>\n      </ol>\n      <p>Selbstverst&auml;ndlich ist ihnen &uuml;berlassen, das Experiement aufgrund von Unwohlseins jederzeit abzubrechen.</p>\n      <p>W&auml;hrend des Experiments wird in der Mitte des Browserfensters ein schwarzer Kreis angezeigt werden. F&uuml;r die Dauer des Experimentes fokussieren Sie diesen. Neben dem Kreis, also rechts und links, wird jeweils ein Wort eingeblendet. Nach einer gewissen Zeit blinken beide W&ouml;rter auf. Sie sollen nun entscheiden, welches Wort zuerst geblinkt hat.</p>\n      <ul style=\"list-style: none;\">\n      <li>F&uuml;r das linke Wort dr&uuml;cken Sie <strong>F</strong></li>\n      <li>F&uuml;r das rechte Wort dr&uuml;cken Sie <strong>J</strong></li>\n      </ul>\n      <p><em>Beide Tasten haben jeweils eine Einkerbung, an welcher Sie sich orientieren k&ouml;nnen.</em></p>\n    ",
		"key_press": 32,
		"trial_type": "html-keyboard-response",
		"trial_index": 2,
		"time_elapsed": 5647,
		"internal_node_id": "0.0-2.0"
	},
	{
		"type": "toj",
		"soa": 100,
		"probe_key": "j",
		"reference_key": "f",
		"probe_element": {},
		"reference_element": {},
		"fixation_time": 400,
		"fixation_mark_html": "<img class='toj-fixation-mark absolute-position' src='./images/fixmark.png'></img>",
		"data": {
			"probeLeft": false,
			"salient": true
		},
		"response_key": "f",
		"response": "reference",
		"response_correct": true,
		"measured_soa": 102.78000000107568,
		"rt": 50.72999999902095,
		"probeLeft": false,
		"salient": true,
		"trial_type": "toj",
		"trial_index": 3,
		"time_elapsed": 6212,
		"internal_node_id": "0.0-3.0-0.0"
	},
	{
		"type": "toj",
		"soa": 50,
		"probe_key": "f",
		"reference_key": "j",
		"probe_element": {},
		"reference_element": {},
		"fixation_time": 400,
		"fixation_mark_html": "<img class='toj-fixation-mark absolute-position' src='./images/fixmark.png'></img>",
		"data": {
			"probeLeft": true,
			"salient": false
		},
		"response_key": "j",
		"response": "reference",
		"response_correct": true,
		"measured_soa": 50.440000002708985,
		"rt": 78.75499999863678,
		"probeLeft": true,
		"salient": false,
		"trial_type": "toj",
		"trial_index": 4,
		"time_elapsed": 6745,
		"internal_node_id": "0.0-3.0-0.1"
	},
	{
		"type": "toj",
		"soa": -50,
		"probe_key": "f",
		"reference_key": "j",
		"probe_element": {},
		"reference_element": {},
		"fixation_time": 400,
		"fixation_mark_html": "<img class='toj-fixation-mark absolute-position' src='./images/fixmark.png'></img>",
		"data": {
			"probeLeft": true,
			"salient": true
		},
		"response_key": "f",
		"response": "probe",
		"response_correct": true,
		"measured_soa": -51.30999999892083,
		"rt": 226.98999999920488,
		"probeLeft": true,
		"salient": true,
		"trial_type": "toj",
		"trial_index": 5,
		"time_elapsed": 7431,
		"internal_node_id": "0.0-3.0-0.2"
	},
	{
		"type": "toj",
		"soa": 50,
		"probe_key": "j",
		"reference_key": "f",
		"probe_element": {},
		"reference_element": {},
		"fixation_time": 400,
		"fixation_mark_html": "<img class='toj-fixation-mark absolute-position' src='./images/fixmark.png'></img>",
		"data": {
			"probeLeft": false,
			"salient": true
		},
		"response_key": "j",
		"response": "probe",
		"response_correct": false,
		"measured_soa": 51.350000001548324,
		"rt": 1101.650000000518,
		"probeLeft": false,
		"salient": true,
		"trial_type": "toj",
		"trial_index": 6,
		"time_elapsed": 8989,
		"internal_node_id": "0.0-3.0-0.3"
	},
	{
		"type": "toj",
		"soa": 0,
		"probe_key": "j",
		"reference_key": "f",
		"probe_element": {},
		"reference_element": {},
		"fixation_time": 400,
		"fixation_mark_html": "<img class='toj-fixation-mark absolute-position' src='./images/fixmark.png'></img>",
		"data": {
			"probeLeft": false,
			"salient": true
		},
		"response_key": "j",
		"response": "probe",
		"response_correct": true,
		"measured_soa": 0.12000000060652383,
		"rt": 8.33500000226195,
		"probeLeft": false,
		"salient": true,
		"trial_type": "toj",
		"trial_index": 7,
		"time_elapsed": 9405,
		"internal_node_id": "0.0-3.0-0.4"
	},
	{
		"type": "toj",
		"soa": -100,
		"probe_key": "j",
		"reference_key": "f",
		"probe_element": {},
		"reference_element": {},
		"fixation_time": 400,
		"fixation_mark_html": "<img class='toj-fixation-mark absolute-position' src='./images/fixmark.png'></img>",
		"data": {
			"probeLeft": false,
			"salient": false
		},
		"response_key": "j",
		"response": "probe",
		"response_correct": true,
		"measured_soa": -101.69500000120024,
		"rt": 275.340000000142,
		"probeLeft": false,
		"salient": false,
		"trial_type": "toj",
		"trial_index": 8,
		"time_elapsed": 10189,
		"internal_node_id": "0.0-3.0-0.5"
	},
	{
		"type": "toj",
		"soa": 0,
		"probe_key": "f",
		"reference_key": "j",
		"probe_element": {},
		"reference_element": {},
		"fixation_time": 400,
		"fixation_mark_html": "<img class='toj-fixation-mark absolute-position' src='./images/fixmark.png'></img>",
		"data": {
			"probeLeft": true,
			"salient": true
		},
		"response_key": "j",
		"response": "reference",
		"response_correct": true,
		"measured_soa": 0.08499999967170879,
		"rt": 385.27999999860185,
		"probeLeft": true,
		"salient": true,
		"trial_type": "toj",
		"trial_index": 9,
		"time_elapsed": 10981,
		"internal_node_id": "0.0-3.0-0.6"
	},
	{
		"type": "toj",
		"soa": -150,
		"probe_key": "j",
		"reference_key": "f",
		"probe_element": {},
		"reference_element": {},
		"fixation_time": 400,
		"fixation_mark_html": "<img class='toj-fixation-mark absolute-position' src='./images/fixmark.png'></img>",
		"data": {
			"probeLeft": false,
			"salient": false
		},
		"response_key": "f",
		"response": "reference",
		"response_correct": false,
		"measured_soa": -150.73499999925843,
		"rt": 1887.7549999997427,
		"probeLeft": false,
		"salient": false,
		"trial_type": "toj",
		"trial_index": 10,
		"time_elapsed": 13423,
		"internal_node_id": "0.0-3.0-0.7"
	},
	{
		"type": "toj",
		"soa": 150,
		"probe_key": "f",
		"reference_key": "j",
		"probe_element": {},
		"reference_element": {},
		"fixation_time": 400,
		"fixation_mark_html": "<img class='toj-fixation-mark absolute-position' src='./images/fixmark.png'></img>",
		"data": {
			"probeLeft": true,
			"salient": false
		},
		"response_key": "j",
		"response": "reference",
		"response_correct": true,
		"measured_soa": 150.78499999799533,
		"rt": 263.39999999981956,
		"probeLeft": true,
		"salient": false,
		"trial_type": "toj",
		"trial_index": 11,
		"time_elapsed": 14243,
		"internal_node_id": "0.0-3.0-0.8"
	},
	{
		"type": "toj",
		"soa": 100,
		"probe_key": "j",
		"reference_key": "f",
		"probe_element": {},
		"reference_element": {},
		"fixation_time": 400,
		"fixation_mark_html": "<img class='toj-fixation-mark absolute-position' src='./images/fixmark.png'></img>",
		"data": {
			"probeLeft": false,
			"salient": false
		},
		"response_key": "j",
		"response": "probe",
		"response_correct": false,
		"measured_soa": 101.34000000107335,
		"rt": 189.5600000025297,
		"probeLeft": false,
		"salient": false,
		"trial_type": "toj",
		"trial_index": 12,
		"time_elapsed": 14940,
		"internal_node_id": "0.0-3.0-0.9"
	},
	{
		"rt": 3658,
		"stimulus": "<p>You finished the tutorial.</p><p>Press any key to continue.</p>",
		"key_press": 32,
		"trial_type": "html-keyboard-response",
		"trial_index": 13,
		"time_elapsed": 18598,
		"internal_node_id": "0.0-4.0"
	},
	{
		"type": "toj",
		"soa": 0,
		"probe_key": "j",
		"reference_key": "f",
		"probe_element": {},
		"reference_element": {},
		"fixation_time": 400,
		"fixation_mark_html": "<img class='toj-fixation-mark absolute-position' src='./images/fixmark.png'></img>",
		"data": {
			"probeLeft": false,
			"salient": true
		},
		"response_key": "f",
		"response": "reference",
		"response_correct": true,
		"measured_soa": 0.1049999991664663,
		"rt": 660.4499999994005,
		"probeLeft": false,
		"salient": true,
		"trial_type": "toj",
		"trial_index": 14,
		"time_elapsed": 19662,
		"internal_node_id": "0.0-5.0-0.0-0.0"
	},
	{
		"type": "toj",
		"soa": -150,
		"probe_key": "f",
		"reference_key": "j",
		"probe_element": {},
		"reference_element": {},
		"fixation_time": 400,
		"fixation_mark_html": "<img class='toj-fixation-mark absolute-position' src='./images/fixmark.png'></img>",
		"data": {
			"probeLeft": true,
			"salient": true
		},
		"response_key": "f",
		"response": "probe",
		"response_correct": true,
		"measured_soa": -153.13500000047497,
		"rt": 253.79999999859137,
		"probeLeft": true,
		"salient": true,
		"trial_type": "toj",
		"trial_index": 15,
		"time_elapsed": 20476,
		"internal_node_id": "0.0-5.0-0.0-0.1"
	},
	{
		"type": "toj",
		"soa": -100,
		"probe_key": "f",
		"reference_key": "j",
		"probe_element": {},
		"reference_element": {},
		"fixation_time": 400,
		"fixation_mark_html": "<img class='toj-fixation-mark absolute-position' src='./images/fixmark.png'></img>",
		"data": {
			"probeLeft": true,
			"salient": false
		},
		"response_key": "f",
		"response": "probe",
		"response_correct": true,
		"measured_soa": -100.9150000027148,
		"rt": 387.47000000148546,
		"probeLeft": true,
		"salient": false,
		"trial_type": "toj",
		"trial_index": 16,
		"time_elapsed": 21371,
		"internal_node_id": "0.0-5.0-0.0-0.2"
	},
	{
		"type": "toj",
		"soa": 50,
		"probe_key": "j",
		"reference_key": "f",
		"probe_element": {},
		"reference_element": {},
		"fixation_time": 400,
		"fixation_mark_html": "<img class='toj-fixation-mark absolute-position' src='./images/fixmark.png'></img>",
		"data": {
			"probeLeft": false,
			"salient": true
		},
		"response_key": "f",
		"response": "reference",
		"response_correct": true,
		"measured_soa": 51.83499999839114,
		"rt": 549.5349999982864,
		"probeLeft": false,
		"salient": true,
		"trial_type": "toj",
		"trial_index": 17,
		"time_elapsed": 22375,
		"internal_node_id": "0.0-5.0-0.0-0.3"
	},
	{
		"type": "toj",
		"soa": 50,
		"probe_key": "f",
		"reference_key": "j",
		"probe_element": {},
		"reference_element": {},
		"fixation_time": 400,
		"fixation_mark_html": "<img class='toj-fixation-mark absolute-position' src='./images/fixmark.png'></img>",
		"data": {
			"probeLeft": true,
			"salient": false
		},
		"response_key": "j",
		"response": "reference",
		"response_correct": true,
		"measured_soa": 50.64499999934924,
		"rt": 405.0749999987602,
		"probeLeft": true,
		"salient": false,
		"trial_type": "toj",
		"trial_index": 18,
		"time_elapsed": 23237,
		"internal_node_id": "0.0-5.0-0.0-0.4"
	},
	{
		"type": "toj",
		"soa": -100,
		"probe_key": "f",
		"reference_key": "j",
		"probe_element": {},
		"reference_element": {},
		"fixation_time": 400,
		"fixation_mark_html": "<img class='toj-fixation-mark absolute-position' src='./images/fixmark.png'></img>",
		"data": {
			"probeLeft": true,
			"salient": true
		},
		"response_key": "f",
		"response": "probe",
		"response_correct": true,
		"measured_soa": -100.80000000016298,
		"rt": 342.8800000001502,
		"probeLeft": true,
		"salient": true,
		"trial_type": "toj",
		"trial_index": 19,
		"time_elapsed": 24083,
		"internal_node_id": "0.0-5.0-0.0-0.5"
	},
	{
		"type": "toj",
		"soa": 100,
		"probe_key": "j",
		"reference_key": "f",
		"probe_element": {},
		"reference_element": {},
		"fixation_time": 400,
		"fixation_mark_html": "<img class='toj-fixation-mark absolute-position' src='./images/fixmark.png'></img>",
		"data": {
			"probeLeft": false,
			"salient": true
		},
		"response_key": "f",
		"response": "reference",
		"response_correct": true,
		"measured_soa": 100.90999999738415,
		"rt": 401.34499999840045,
		"probeLeft": false,
		"salient": true,
		"trial_type": "toj",
		"trial_index": 20,
		"time_elapsed": 24990,
		"internal_node_id": "0.0-5.0-0.0-0.6"
	},
	{
		"type": "toj",
		"soa": -150,
		"probe_key": "j",
		"reference_key": "f",
		"probe_element": {},
		"reference_element": {},
		"fixation_time": 400,
		"fixation_mark_html": "<img class='toj-fixation-mark absolute-position' src='./images/fixmark.png'></img>",
		"data": {
			"probeLeft": false,
			"salient": false
		},
		"response_key": "j",
		"response": "probe",
		"response_correct": true,
		"measured_soa": -155.0649999990128,
		"rt": 335.85500000117463,
		"probeLeft": false,
		"salient": false,
		"trial_type": "toj",
		"trial_index": 21,
		"time_elapsed": 25883,
		"internal_node_id": "0.0-5.0-0.0-0.7"
	},
	{
		"type": "toj",
		"soa": 0,
		"probe_key": "f",
		"reference_key": "j",
		"probe_element": {},
		"reference_element": {},
		"fixation_time": 400,
		"fixation_mark_html": "<img class='toj-fixation-mark absolute-position' src='./images/fixmark.png'></img>",
		"data": {
			"probeLeft": true,
			"salient": false
		},
		"response_key": "f",
		"response": "probe",
		"response_correct": true,
		"measured_soa": 0.07000000186963007,
		"rt": 586.6300000016054,
		"probeLeft": true,
		"salient": false,
		"trial_type": "toj",
		"trial_index": 22,
		"time_elapsed": 26873,
		"internal_node_id": "0.0-5.0-0.0-0.8"
	},
	{
		"type": "toj",
		"soa": 50,
		"probe_key": "j",
		"reference_key": "f",
		"probe_element": {},
		"reference_element": {},
		"fixation_time": 400,
		"fixation_mark_html": "<img class='toj-fixation-mark absolute-position' src='./images/fixmark.png'></img>",
		"data": {
			"probeLeft": false,
			"salient": false
		},
		"response_key": "f",
		"response": "reference",
		"response_correct": true,
		"measured_soa": 52.15499999758322,
		"rt": 573.7550000012561,
		"probeLeft": false,
		"salient": false,
		"trial_type": "toj",
		"trial_index": 23,
		"time_elapsed": 27906,
		"internal_node_id": "0.0-5.0-0.0-0.9"
	},
	{
		"type": "toj",
		"soa": -50,
		"probe_key": "j",
		"reference_key": "f",
		"probe_element": {},
		"reference_element": {},
		"fixation_time": 400,
		"fixation_mark_html": "<img class='toj-fixation-mark absolute-position' src='./images/fixmark.png'></img>",
		"data": {
			"probeLeft": false,
			"salient": true
		},
		"response_key": "j",
		"response": "probe",
		"response_correct": true,
		"measured_soa": -52.20499999995809,
		"rt": 468.7050000029558,
		"probeLeft": false,
		"salient": true,
		"trial_type": "toj",
		"trial_index": 24,
		"time_elapsed": 28834,
		"internal_node_id": "0.0-5.0-0.0-0.10"
	},
	{
		"type": "toj",
		"soa": 150,
		"probe_key": "j",
		"reference_key": "f",
		"probe_element": {},
		"reference_element": {},
		"fixation_time": 400,
		"fixation_mark_html": "<img class='toj-fixation-mark absolute-position' src='./images/fixmark.png'></img>",
		"data": {
			"probeLeft": false,
			"salient": false
		},
		"response_key": "f",
		"response": "reference",
		"response_correct": true,
		"measured_soa": 150.485000001936,
		"rt": 339.36500000345404,
		"probeLeft": false,
		"salient": false,
		"trial_type": "toj",
		"trial_index": 25,
		"time_elapsed": 29731,
		"internal_node_id": "0.0-5.0-0.0-0.11"
	},
	{
		"type": "toj",
		"soa": 50,
		"probe_key": "f",
		"reference_key": "j",
		"probe_element": {},
		"reference_element": {},
		"fixation_time": 400,
		"fixation_mark_html": "<img class='toj-fixation-mark absolute-position' src='./images/fixmark.png'></img>",
		"data": {
			"probeLeft": true,
			"salient": true
		},
		"response_key": "f",
		"response": "probe",
		"response_correct": false,
		"measured_soa": 50.454999996873084,
		"rt": 579.555000000255,
		"probeLeft": true,
		"salient": true,
		"trial_type": "toj",
		"trial_index": 26,
		"time_elapsed": 30766,
		"internal_node_id": "0.0-5.0-0.0-0.12"
	},
	{
		"type": "toj",
		"soa": 100,
		"probe_key": "f",
		"reference_key": "j",
		"probe_element": {},
		"reference_element": {},
		"fixation_time": 400,
		"fixation_mark_html": "<img class='toj-fixation-mark absolute-position' src='./images/fixmark.png'></img>",
		"data": {
			"probeLeft": true,
			"salient": false
		},
		"response_key": "j",
		"response": "reference",
		"response_correct": true,
		"measured_soa": 100.86500000033993,
		"rt": 391.1400000033609,
		"probeLeft": true,
		"salient": false,
		"trial_type": "toj",
		"trial_index": 27,
		"time_elapsed": 31666,
		"internal_node_id": "0.0-5.0-0.0-0.13"
	},
	{
		"type": "toj",
		"soa": 150,
		"probe_key": "f",
		"reference_key": "j",
		"probe_element": {},
		"reference_element": {},
		"fixation_time": 400,
		"fixation_mark_html": "<img class='toj-fixation-mark absolute-position' src='./images/fixmark.png'></img>",
		"data": {
			"probeLeft": true,
			"salient": false
		},
		"response_key": "j",
		"response": "reference",
		"response_correct": true,
		"measured_soa": 151.1949999985518,
		"rt": 454.3599999997241,
		"probeLeft": true,
		"salient": false,
		"trial_type": "toj",
		"trial_index": 28,
		"time_elapsed": 32676,
		"internal_node_id": "0.0-5.0-0.0-0.14"
	},
	{
		"type": "toj",
		"soa": 100,
		"probe_key": "f",
		"reference_key": "j",
		"probe_element": {},
		"reference_element": {},
		"fixation_time": 400,
		"fixation_mark_html": "<img class='toj-fixation-mark absolute-position' src='./images/fixmark.png'></img>",
		"data": {
			"probeLeft": true,
			"salient": true
		},
		"response_key": "j",
		"response": "reference",
		"response_correct": true,
		"measured_soa": 100.95500000170432,
		"rt": 506.67000000248663,
		"probeLeft": true,
		"salient": true,
		"trial_type": "toj",
		"trial_index": 29,
		"time_elapsed": 33687,
		"internal_node_id": "0.0-5.0-0.0-0.15"
	},
	{
		"type": "toj",
		"soa": 100,
		"probe_key": "j",
		"reference_key": "f",
		"probe_element": {},
		"reference_element": {},
		"fixation_time": 400,
		"fixation_mark_html": "<img class='toj-fixation-mark absolute-position' src='./images/fixmark.png'></img>",
		"data": {
			"probeLeft": false,
			"salient": false
		},
		"response_key": "f",
		"response": "reference",
		"response_correct": true,
		"measured_soa": 100.66999999980908,
		"rt": 497.350000001461,
		"probeLeft": false,
		"salient": false,
		"trial_type": "toj",
		"trial_index": 30,
		"time_elapsed": 34691,
		"internal_node_id": "0.0-5.0-0.0-0.16"
	},
	{
		"type": "toj",
		"soa": 0,
		"probe_key": "j",
		"reference_key": "f",
		"probe_element": {},
		"reference_element": {},
		"fixation_time": 400,
		"fixation_mark_html": "<img class='toj-fixation-mark absolute-position' src='./images/fixmark.png'></img>",
		"data": {
			"probeLeft": false,
			"salient": false
		},
		"response_key": "f",
		"response": "reference",
		"response_correct": true,
		"measured_soa": 0.1049999991664663,
		"rt": 601.0600000008708,
		"probeLeft": false,
		"salient": false,
		"trial_type": "toj",
		"trial_index": 31,
		"time_elapsed": 35697,
		"internal_node_id": "0.0-5.0-0.0-0.17"
	},
	{
		"type": "toj",
		"soa": 150,
		"probe_key": "f",
		"reference_key": "j",
		"probe_element": {},
		"reference_element": {},
		"fixation_time": 400,
		"fixation_mark_html": "<img class='toj-fixation-mark absolute-position' src='./images/fixmark.png'></img>",
		"data": {
			"probeLeft": true,
			"salient": true
		},
		"response_key": "j",
		"response": "reference",
		"response_correct": true,
		"measured_soa": 155.55999999924097,
		"rt": 275.6950000002689,
		"probeLeft": true,
		"salient": true,
		"trial_type": "toj",
		"trial_index": 32,
		"time_elapsed": 36531,
		"internal_node_id": "0.0-5.0-0.0-0.18"
	},
	{
		"type": "toj",
		"soa": -150,
		"probe_key": "j",
		"reference_key": "f",
		"probe_element": {},
		"reference_element": {},
		"fixation_time": 400,
		"fixation_mark_html": "<img class='toj-fixation-mark absolute-position' src='./images/fixmark.png'></img>",
		"data": {
			"probeLeft": false,
			"salient": true
		},
		"response_key": "j",
		"response": "probe",
		"response_correct": true,
		"measured_soa": -151.13500000006752,
		"rt": 347.2650000003341,
		"probeLeft": false,
		"salient": true,
		"trial_type": "toj",
		"trial_index": 33,
		"time_elapsed": 37433,
		"internal_node_id": "0.0-5.0-0.0-0.19"
	},
	{
		"type": "toj",
		"soa": 0,
		"probe_key": "f",
		"reference_key": "j",
		"probe_element": {},
		"reference_element": {},
		"fixation_time": 400,
		"fixation_mark_html": "<img class='toj-fixation-mark absolute-position' src='./images/fixmark.png'></img>",
		"data": {
			"probeLeft": true,
			"salient": true
		},
		"response_key": "f",
		"response": "probe",
		"response_correct": true,
		"measured_soa": 0.06999999823165126,
		"rt": 597.9150000021036,
		"probeLeft": true,
		"salient": true,
		"trial_type": "toj",
		"trial_index": 34,
		"time_elapsed": 38439,
		"internal_node_id": "0.0-5.0-0.0-0.20"
	},
	{
		"type": "toj",
		"soa": 150,
		"probe_key": "j",
		"reference_key": "f",
		"probe_element": {},
		"reference_element": {},
		"fixation_time": 400,
		"fixation_mark_html": "<img class='toj-fixation-mark absolute-position' src='./images/fixmark.png'></img>",
		"data": {
			"probeLeft": false,
			"salient": true
		},
		"response_key": "f",
		"response": "reference",
		"response_correct": true,
		"measured_soa": 154.60499999971944,
		"rt": 376.03999999919324,
		"probeLeft": false,
		"salient": true,
		"trial_type": "toj",
		"trial_index": 35,
		"time_elapsed": 39375,
		"internal_node_id": "0.0-5.0-0.0-0.21"
	},
	{
		"type": "toj",
		"soa": -100,
		"probe_key": "j",
		"reference_key": "f",
		"probe_element": {},
		"reference_element": {},
		"fixation_time": 400,
		"fixation_mark_html": "<img class='toj-fixation-mark absolute-position' src='./images/fixmark.png'></img>",
		"data": {
			"probeLeft": false,
			"salient": true
		},
		"response_key": "j",
		"response": "probe",
		"response_correct": true,
		"measured_soa": -101.26500000114902,
		"rt": 414.2050000009476,
		"probeLeft": false,
		"salient": true,
		"trial_type": "toj",
		"trial_index": 36,
		"time_elapsed": 40295,
		"internal_node_id": "0.0-5.0-0.0-0.22"
	},
	{
		"type": "toj",
		"soa": -50,
		"probe_key": "j",
		"reference_key": "f",
		"probe_element": {},
		"reference_element": {},
		"fixation_time": 400,
		"fixation_mark_html": "<img class='toj-fixation-mark absolute-position' src='./images/fixmark.png'></img>",
		"data": {
			"probeLeft": false,
			"salient": false
		},
		"response_key": "f",
		"response": "reference",
		"response_correct": false,
		"measured_soa": -51.24499999874388,
		"rt": 462.55500000188476,
		"probeLeft": false,
		"salient": false,
		"trial_type": "toj",
		"trial_index": 37,
		"time_elapsed": 41212,
		"internal_node_id": "0.0-5.0-0.0-0.23"
	},
	{
		"type": "toj",
		"soa": -100,
		"probe_key": "j",
		"reference_key": "f",
		"probe_element": {},
		"reference_element": {},
		"fixation_time": 400,
		"fixation_mark_html": "<img class='toj-fixation-mark absolute-position' src='./images/fixmark.png'></img>",
		"data": {
			"probeLeft": false,
			"salient": false
		},
		"response_key": "j",
		"response": "probe",
		"response_correct": true,
		"measured_soa": -102.62499999953434,
		"rt": 376.8400000008114,
		"probeLeft": false,
		"salient": false,
		"trial_type": "toj",
		"trial_index": 38,
		"time_elapsed": 42094,
		"internal_node_id": "0.0-5.0-0.0-0.24"
	},
	{
		"type": "toj",
		"soa": -50,
		"probe_key": "f",
		"reference_key": "j",
		"probe_element": {},
		"reference_element": {},
		"fixation_time": 400,
		"fixation_mark_html": "<img class='toj-fixation-mark absolute-position' src='./images/fixmark.png'></img>",
		"data": {
			"probeLeft": true,
			"salient": true
		},
		"response_key": "f",
		"response": "probe",
		"response_correct": true,
		"measured_soa": -50.69000000003143,
		"rt": 505.13999999748194,
		"probeLeft": true,
		"salient": true,
		"trial_type": "toj",
		"trial_index": 39,
		"time_elapsed": 43054,
		"internal_node_id": "0.0-5.0-0.0-0.25"
	},
	{
		"type": "toj",
		"soa": -150,
		"probe_key": "f",
		"reference_key": "j",
		"probe_element": {},
		"reference_element": {},
		"fixation_time": 400,
		"fixation_mark_html": "<img class='toj-fixation-mark absolute-position' src='./images/fixmark.png'></img>",
		"data": {
			"probeLeft": true,
			"salient": false
		},
		"response_key": "f",
		"response": "probe",
		"response_correct": true,
		"measured_soa": -153.93499999845517,
		"rt": 460.84500000142725,
		"probeLeft": true,
		"salient": false,
		"trial_type": "toj",
		"trial_index": 40,
		"time_elapsed": 44076,
		"internal_node_id": "0.0-5.0-0.0-0.26"
	},
	{
		"type": "toj",
		"soa": -50,
		"probe_key": "f",
		"reference_key": "j",
		"probe_element": {},
		"reference_element": {},
		"fixation_time": 400,
		"fixation_mark_html": "<img class='toj-fixation-mark absolute-position' src='./images/fixmark.png'></img>",
		"data": {
			"probeLeft": true,
			"salient": false
		},
		"response_key": "f",
		"response": "probe",
		"response_correct": true,
		"measured_soa": -50.374999998894054,
		"rt": 486.34999999922,
		"probeLeft": true,
		"salient": false,
		"trial_type": "toj",
		"trial_index": 41,
		"time_elapsed": 45019,
		"internal_node_id": "0.0-5.0-0.0-0.27"
	},
	{
		"rt": 3440,
		"stimulus": "<p>You finished block 1 of 5.<p/><p>Press any key to continue.</p>",
		"key_press": 91,
		"trial_type": "html-keyboard-response",
		"trial_index": 42,
		"time_elapsed": 48460,
		"internal_node_id": "0.0-5.0-1.0"
	},
	{
		"type": "toj",
		"soa": 0,
		"probe_key": "j",
		"reference_key": "f",
		"probe_element": {},
		"reference_element": {},
		"fixation_time": 400,
		"fixation_mark_html": "<img class='toj-fixation-mark absolute-position' src='./images/fixmark.png'></img>",
		"data": {
			"probeLeft": false,
			"salient": true
		},
		"response_key": "j",
		"response": "probe",
		"response_correct": true,
		"measured_soa": 0.06500000017695129,
		"rt": 18393.980000000738,
		"probeLeft": false,
		"salient": true,
		"trial_type": "toj",
		"trial_index": 43,
		"time_elapsed": 67261,
		"internal_node_id": "0.0-5.0-0.1-0.28"
	},
	{
		"type": "toj",
		"soa": 0,
		"probe_key": "f",
		"reference_key": "j",
		"probe_element": {},
		"reference_element": {},
		"fixation_time": 400,
		"fixation_mark_html": "<img class='toj-fixation-mark absolute-position' src='./images/fixmark.png'></img>",
		"data": {
			"probeLeft": true,
			"salient": true
		},
		"response_key": "f",
		"response": "probe",
		"response_correct": true,
		"measured_soa": 0.06999999823165126,
		"rt": 603.6450000028708,
		"probeLeft": true,
		"salient": true,
		"trial_type": "toj",
		"trial_index": 44,
		"time_elapsed": 68268,
		"internal_node_id": "0.0-5.0-0.1-0.29"
	},
	{
		"type": "toj",
		"soa": 50,
		"probe_key": "f",
		"reference_key": "j",
		"probe_element": {},
		"reference_element": {},
		"fixation_time": 400,
		"fixation_mark_html": "<img class='toj-fixation-mark absolute-position' src='./images/fixmark.png'></img>",
		"data": {
			"probeLeft": true,
			"salient": true
		},
		"response_key": "f",
		"response": "probe",
		"response_correct": false,
		"measured_soa": 52.12000000028638,
		"rt": 497.8899999987334,
		"probeLeft": true,
		"salient": true,
		"trial_type": "toj",
		"trial_index": 45,
		"time_elapsed": 69225,
		"internal_node_id": "0.0-5.0-0.1-0.30"
	},
	{
		"type": "toj",
		"soa": 150,
		"probe_key": "j",
		"reference_key": "f",
		"probe_element": {},
		"reference_element": {},
		"fixation_time": 400,
		"fixation_mark_html": "<img class='toj-fixation-mark absolute-position' src='./images/fixmark.png'></img>",
		"data": {
			"probeLeft": false,
			"salient": true
		},
		"response_key": "f",
		"response": "reference",
		"response_correct": true,
		"measured_soa": 154.06499999880907,
		"rt": 223.4100000023318,
		"probeLeft": false,
		"salient": true,
		"trial_type": "toj",
		"trial_index": 46,
		"time_elapsed": 70010,
		"internal_node_id": "0.0-5.0-0.1-0.31"
	},
	{
		"type": "toj",
		"soa": -150,
		"probe_key": "j",
		"reference_key": "f",
		"probe_element": {},
		"reference_element": {},
		"fixation_time": 400,
		"fixation_mark_html": "<img class='toj-fixation-mark absolute-position' src='./images/fixmark.png'></img>",
		"data": {
			"probeLeft": false,
			"salient": true
		},
		"response_key": "j",
		"response": "probe",
		"response_correct": true,
		"measured_soa": -154.7099999988859,
		"rt": 379.6050000019022,
		"probeLeft": false,
		"salient": true,
		"trial_type": "toj",
		"trial_index": 47,
		"time_elapsed": 70948,
		"internal_node_id": "0.0-5.0-0.1-0.32"
	},
	{
		"type": "toj",
		"soa": 50,
		"probe_key": "f",
		"reference_key": "j",
		"probe_element": {},
		"reference_element": {},
		"fixation_time": 400,
		"fixation_mark_html": "<img class='toj-fixation-mark absolute-position' src='./images/fixmark.png'></img>",
		"data": {
			"probeLeft": true,
			"salient": false
		},
		"response_key": "j",
		"response": "reference",
		"response_correct": true,
		"measured_soa": 50.439999999071006,
		"rt": 586.61999999822,
		"probeLeft": true,
		"salient": false,
		"trial_type": "toj",
		"trial_index": 48,
		"time_elapsed": 71988,
		"internal_node_id": "0.0-5.0-0.1-0.33"
	},
	{
		"type": "toj",
		"soa": 150,
		"probe_key": "f",
		"reference_key": "j",
		"probe_element": {},
		"reference_element": {},
		"fixation_time": 400,
		"fixation_mark_html": "<img class='toj-fixation-mark absolute-position' src='./images/fixmark.png'></img>",
		"data": {
			"probeLeft": true,
			"salient": false
		},
		"response_key": "j",
		"response": "reference",
		"response_correct": true,
		"measured_soa": 153.6049999995157,
		"rt": 481.1550000013085,
		"probeLeft": true,
		"salient": false,
		"trial_type": "toj",
		"trial_index": 49,
		"time_elapsed": 73028,
		"internal_node_id": "0.0-5.0-0.1-0.34"
	},
	{
		"type": "toj",
		"soa": -100,
		"probe_key": "f",
		"reference_key": "j",
		"probe_element": {},
		"reference_element": {},
		"fixation_time": 400,
		"fixation_mark_html": "<img class='toj-fixation-mark absolute-position' src='./images/fixmark.png'></img>",
		"data": {
			"probeLeft": true,
			"salient": false
		},
		"response_key": "f",
		"response": "probe",
		"response_correct": true,
		"measured_soa": -100.9200000007695,
		"rt": 508.5949999993318,
		"probeLeft": true,
		"salient": false,
		"trial_type": "toj",
		"trial_index": 50,
		"time_elapsed": 74042,
		"internal_node_id": "0.0-5.0-0.1-0.35"
	},
	{
		"type": "toj",
		"soa": -100,
		"probe_key": "j",
		"reference_key": "f",
		"probe_element": {},
		"reference_element": {},
		"fixation_time": 400,
		"fixation_mark_html": "<img class='toj-fixation-mark absolute-position' src='./images/fixmark.png'></img>",
		"data": {
			"probeLeft": false,
			"salient": false
		},
		"response_key": "j",
		"response": "probe",
		"response_correct": true,
		"measured_soa": -101.02000000188127,
		"rt": 452.08999999886146,
		"probeLeft": false,
		"salient": false,
		"trial_type": "toj",
		"trial_index": 51,
		"time_elapsed": 75002,
		"internal_node_id": "0.0-5.0-0.1-0.36"
	},
	{
		"type": "toj",
		"soa": -50,
		"probe_key": "f",
		"reference_key": "j",
		"probe_element": {},
		"reference_element": {},
		"fixation_time": 400,
		"fixation_mark_html": "<img class='toj-fixation-mark absolute-position' src='./images/fixmark.png'></img>",
		"data": {
			"probeLeft": true,
			"salient": false
		},
		"response_key": "f",
		"response": "probe",
		"response_correct": true,
		"measured_soa": -50.80499999894528,
		"rt": 389.1449999973702,
		"probeLeft": true,
		"salient": false,
		"trial_type": "toj",
		"trial_index": 52,
		"time_elapsed": 75846,
		"internal_node_id": "0.0-5.0-0.1-0.37"
	},
	{
		"type": "toj",
		"soa": -150,
		"probe_key": "f",
		"reference_key": "j",
		"probe_element": {},
		"reference_element": {},
		"fixation_time": 400,
		"fixation_mark_html": "<img class='toj-fixation-mark absolute-position' src='./images/fixmark.png'></img>",
		"data": {
			"probeLeft": true,
			"salient": true
		},
		"response_key": "f",
		"response": "probe",
		"response_correct": true,
		"measured_soa": -150.59000000110245,
		"rt": 336.91000000180793,
		"probeLeft": true,
		"salient": true,
		"trial_type": "toj",
		"trial_index": 53,
		"time_elapsed": 76736,
		"internal_node_id": "0.0-5.0-0.1-0.38"
	},
	{
		"type": "toj",
		"soa": 150,
		"probe_key": "f",
		"reference_key": "j",
		"probe_element": {},
		"reference_element": {},
		"fixation_time": 400,
		"fixation_mark_html": "<img class='toj-fixation-mark absolute-position' src='./images/fixmark.png'></img>",
		"data": {
			"probeLeft": true,
			"salient": true
		},
		"response_key": "j",
		"response": "reference",
		"response_correct": true,
		"measured_soa": 152.1150000007765,
		"rt": 389.790000001085,
		"probeLeft": true,
		"salient": true,
		"trial_type": "toj",
		"trial_index": 54,
		"time_elapsed": 77682,
		"internal_node_id": "0.0-5.0-0.1-0.39"
	},
	{
		"type": "toj",
		"soa": -100,
		"probe_key": "j",
		"reference_key": "f",
		"probe_element": {},
		"reference_element": {},
		"fixation_time": 400,
		"fixation_mark_html": "<img class='toj-fixation-mark absolute-position' src='./images/fixmark.png'></img>",
		"data": {
			"probeLeft": false,
			"salient": true
		},
		"response_key": "j",
		"response": "probe",
		"response_correct": true,
		"measured_soa": -101.1499999985972,
		"rt": 450.59499999842956,
		"probeLeft": false,
		"salient": true,
		"trial_type": "toj",
		"trial_index": 55,
		"time_elapsed": 78639,
		"internal_node_id": "0.0-5.0-0.1-0.40"
	},
	{
		"type": "toj",
		"soa": 0,
		"probe_key": "j",
		"reference_key": "f",
		"probe_element": {},
		"reference_element": {},
		"fixation_time": 400,
		"fixation_mark_html": "<img class='toj-fixation-mark absolute-position' src='./images/fixmark.png'></img>",
		"data": {
			"probeLeft": false,
			"salient": false
		},
		"response_key": "j",
		"response": "probe",
		"response_correct": true,
		"measured_soa": 0.09499999941908754,
		"rt": 589.4450000014331,
		"probeLeft": false,
		"salient": false,
		"trial_type": "toj",
		"trial_index": 56,
		"time_elapsed": 79633,
		"internal_node_id": "0.0-5.0-0.1-0.41"
	},
	{
		"type": "toj",
		"soa": 100,
		"probe_key": "f",
		"reference_key": "j",
		"probe_element": {},
		"reference_element": {},
		"fixation_time": 400,
		"fixation_mark_html": "<img class='toj-fixation-mark absolute-position' src='./images/fixmark.png'></img>",
		"data": {
			"probeLeft": true,
			"salient": true
		},
		"response_key": "j",
		"response": "reference",
		"response_correct": true,
		"measured_soa": 101.70999999900232,
		"rt": 496.5550000015355,
		"probeLeft": true,
		"salient": true,
		"trial_type": "toj",
		"trial_index": 57,
		"time_elapsed": 80640,
		"internal_node_id": "0.0-5.0-0.1-0.42"
	},
	{
		"type": "toj",
		"soa": -150,
		"probe_key": "j",
		"reference_key": "f",
		"probe_element": {},
		"reference_element": {},
		"fixation_time": 400,
		"fixation_mark_html": "<img class='toj-fixation-mark absolute-position' src='./images/fixmark.png'></img>",
		"data": {
			"probeLeft": false,
			"salient": false
		},
		"response_key": "j",
		"response": "probe",
		"response_correct": true,
		"measured_soa": -154.19000000110827,
		"rt": 419.03499999898486,
		"probeLeft": false,
		"salient": false,
		"trial_type": "toj",
		"trial_index": 58,
		"time_elapsed": 81617,
		"internal_node_id": "0.0-5.0-0.1-0.43"
	},
	{
		"type": "toj",
		"soa": 100,
		"probe_key": "f",
		"reference_key": "j",
		"probe_element": {},
		"reference_element": {},
		"fixation_time": 400,
		"fixation_mark_html": "<img class='toj-fixation-mark absolute-position' src='./images/fixmark.png'></img>",
		"data": {
			"probeLeft": true,
			"salient": false
		},
		"response_key": "j",
		"response": "reference",
		"response_correct": true,
		"measured_soa": 100.44000000198139,
		"rt": 437.1500000015658,
		"probeLeft": true,
		"salient": false,
		"trial_type": "toj",
		"trial_index": 59,
		"time_elapsed": 82561,
		"internal_node_id": "0.0-5.0-0.1-0.44"
	},
	{
		"type": "toj",
		"soa": -50,
		"probe_key": "j",
		"reference_key": "f",
		"probe_element": {},
		"reference_element": {},
		"fixation_time": 400,
		"fixation_mark_html": "<img class='toj-fixation-mark absolute-position' src='./images/fixmark.png'></img>",
		"data": {
			"probeLeft": false,
			"salient": true
		},
		"response_key": "j",
		"response": "probe",
		"response_correct": true,
		"measured_soa": -50.83500000182539,
		"rt": 729.2399999969348,
		"probeLeft": false,
		"salient": true,
		"trial_type": "toj",
		"trial_index": 60,
		"time_elapsed": 83747,
		"internal_node_id": "0.0-5.0-0.1-0.45"
	},
	{
		"type": "toj",
		"soa": -50,
		"probe_key": "f",
		"reference_key": "j",
		"probe_element": {},
		"reference_element": {},
		"fixation_time": 400,
		"fixation_mark_html": "<img class='toj-fixation-mark absolute-position' src='./images/fixmark.png'></img>",
		"data": {
			"probeLeft": true,
			"salient": true
		},
		"response_key": "f",
		"response": "probe",
		"response_correct": true,
		"measured_soa": -50.39500000202679,
		"rt": 400.4949999980454,
		"probeLeft": true,
		"salient": true,
		"trial_type": "toj",
		"trial_index": 61,
		"time_elapsed": 84605,
		"internal_node_id": "0.0-5.0-0.1-0.46"
	},
	{
		"type": "toj",
		"soa": -50,
		"probe_key": "j",
		"reference_key": "f",
		"probe_element": {},
		"reference_element": {},
		"fixation_time": 400,
		"fixation_mark_html": "<img class='toj-fixation-mark absolute-position' src='./images/fixmark.png'></img>",
		"data": {
			"probeLeft": false,
			"salient": false
		},
		"response_key": "j",
		"response": "probe",
		"response_correct": true,
		"measured_soa": -52.65499999950407,
		"rt": 444.12999999985914,
		"probeLeft": false,
		"salient": false,
		"trial_type": "toj",
		"trial_index": 62,
		"time_elapsed": 85508,
		"internal_node_id": "0.0-5.0-0.1-0.47"
	},
	{
		"type": "toj",
		"soa": 50,
		"probe_key": "j",
		"reference_key": "f",
		"probe_element": {},
		"reference_element": {},
		"fixation_time": 400,
		"fixation_mark_html": "<img class='toj-fixation-mark absolute-position' src='./images/fixmark.png'></img>",
		"data": {
			"probeLeft": false,
			"salient": true
		},
		"response_key": "f",
		"response": "reference",
		"response_correct": true,
		"measured_soa": 53.25499999889871,
		"rt": 467.9649999998219,
		"probeLeft": false,
		"salient": true,
		"trial_type": "toj",
		"trial_index": 63,
		"time_elapsed": 86437,
		"internal_node_id": "0.0-5.0-0.1-0.48"
	},
	{
		"type": "toj",
		"soa": 150,
		"probe_key": "j",
		"reference_key": "f",
		"probe_element": {},
		"reference_element": {},
		"fixation_time": 400,
		"fixation_mark_html": "<img class='toj-fixation-mark absolute-position' src='./images/fixmark.png'></img>",
		"data": {
			"probeLeft": false,
			"salient": false
		},
		"response_key": "f",
		"response": "reference",
		"response_correct": true,
		"measured_soa": 151.0649999981979,
		"rt": 635.1099999992584,
		"probeLeft": false,
		"salient": false,
		"trial_type": "toj",
		"trial_index": 64,
		"time_elapsed": 87628,
		"internal_node_id": "0.0-5.0-0.1-0.49"
	},
	{
		"type": "toj",
		"soa": 100,
		"probe_key": "j",
		"reference_key": "f",
		"probe_element": {},
		"reference_element": {},
		"fixation_time": 400,
		"fixation_mark_html": "<img class='toj-fixation-mark absolute-position' src='./images/fixmark.png'></img>",
		"data": {
			"probeLeft": false,
			"salient": true
		},
		"response_key": "f",
		"response": "reference",
		"response_correct": true,
		"measured_soa": 101.02000000188127,
		"rt": 539.3399999993562,
		"probeLeft": false,
		"salient": true,
		"trial_type": "toj",
		"trial_index": 65,
		"time_elapsed": 88672,
		"internal_node_id": "0.0-5.0-0.1-0.50"
	},
	{
		"type": "toj",
		"soa": 0,
		"probe_key": "f",
		"reference_key": "j",
		"probe_element": {},
		"reference_element": {},
		"fixation_time": 400,
		"fixation_mark_html": "<img class='toj-fixation-mark absolute-position' src='./images/fixmark.png'></img>",
		"data": {
			"probeLeft": true,
			"salient": false
		},
		"response_key": "f",
		"response": "probe",
		"response_correct": true,
		"measured_soa": 0.13000000035390258,
		"rt": 634.3750000014552,
		"probeLeft": true,
		"salient": false,
		"trial_type": "toj",
		"trial_index": 66,
		"time_elapsed": 89716,
		"internal_node_id": "0.0-5.0-0.1-0.51"
	},
	{
		"type": "toj",
		"soa": 50,
		"probe_key": "j",
		"reference_key": "f",
		"probe_element": {},
		"reference_element": {},
		"fixation_time": 400,
		"fixation_mark_html": "<img class='toj-fixation-mark absolute-position' src='./images/fixmark.png'></img>",
		"data": {
			"probeLeft": false,
			"salient": false
		},
		"response_key": "f",
		"response": "reference",
		"response_correct": true,
		"measured_soa": 51.82000000058906,
		"rt": 616.2499999991269,
		"probeLeft": false,
		"salient": false,
		"trial_type": "toj",
		"trial_index": 67,
		"time_elapsed": 90788,
		"internal_node_id": "0.0-5.0-0.1-0.52"
	},
	{
		"type": "toj",
		"soa": -150,
		"probe_key": "f",
		"reference_key": "j",
		"probe_element": {},
		"reference_element": {},
		"fixation_time": 400,
		"fixation_mark_html": "<img class='toj-fixation-mark absolute-position' src='./images/fixmark.png'></img>",
		"data": {
			"probeLeft": true,
			"salient": false
		},
		"response_key": "f",
		"response": "probe",
		"response_correct": true,
		"measured_soa": -150.8800000010524,
		"rt": 641.1000000007334,
		"probeLeft": true,
		"salient": false,
		"trial_type": "toj",
		"trial_index": 68,
		"time_elapsed": 91982,
		"internal_node_id": "0.0-5.0-0.1-0.53"
	},
	{
		"type": "toj",
		"soa": 100,
		"probe_key": "j",
		"reference_key": "f",
		"probe_element": {},
		"reference_element": {},
		"fixation_time": 400,
		"fixation_mark_html": "<img class='toj-fixation-mark absolute-position' src='./images/fixmark.png'></img>",
		"data": {
			"probeLeft": false,
			"salient": false
		},
		"response_key": "f",
		"response": "reference",
		"response_correct": true,
		"measured_soa": 102.49000000112574,
		"rt": 514.1049999983807,
		"probeLeft": false,
		"salient": false,
		"trial_type": "toj",
		"trial_index": 69,
		"time_elapsed": 93008,
		"internal_node_id": "0.0-5.0-0.1-0.54"
	},
	{
		"type": "toj",
		"soa": -100,
		"probe_key": "f",
		"reference_key": "j",
		"probe_element": {},
		"reference_element": {},
		"fixation_time": 400,
		"fixation_mark_html": "<img class='toj-fixation-mark absolute-position' src='./images/fixmark.png'></img>",
		"data": {
			"probeLeft": true,
			"salient": true
		},
		"response_key": "f",
		"response": "probe",
		"response_correct": true,
		"measured_soa": -101.32499999963329,
		"rt": 645.4850000009174,
		"probeLeft": true,
		"salient": true,
		"trial_type": "toj",
		"trial_index": 70,
		"time_elapsed": 94161,
		"internal_node_id": "0.0-5.0-0.1-0.55"
	},
	{
		"rt": 773,
		"stimulus": "<p>You finished block 2 of 5.<p/><p>Press any key to continue.</p>",
		"key_press": 32,
		"trial_type": "html-keyboard-response",
		"trial_index": 71,
		"time_elapsed": 94934,
		"internal_node_id": "0.0-5.0-1.1"
	},
	{
		"type": "toj",
		"soa": 150,
		"probe_key": "j",
		"reference_key": "f",
		"probe_element": {},
		"reference_element": {},
		"fixation_time": 400,
		"fixation_mark_html": "<img class='toj-fixation-mark absolute-position' src='./images/fixmark.png'></img>",
		"data": {
			"probeLeft": false,
			"salient": false
		},
		"response_key": "f",
		"response": "reference",
		"response_correct": true,
		"measured_soa": 152.35499999835156,
		"rt": 324.89999999961583,
		"probeLeft": false,
		"salient": false,
		"trial_type": "toj",
		"trial_index": 72,
		"time_elapsed": 95817,
		"internal_node_id": "0.0-5.0-0.2-0.56"
	},
	{
		"type": "toj",
		"soa": 50,
		"probe_key": "f",
		"reference_key": "j",
		"probe_element": {},
		"reference_element": {},
		"fixation_time": 400,
		"fixation_mark_html": "<img class='toj-fixation-mark absolute-position' src='./images/fixmark.png'></img>",
		"data": {
			"probeLeft": true,
			"salient": true
		},
		"response_key": "j",
		"response": "reference",
		"response_correct": true,
		"measured_soa": 51.55000000013388,
		"rt": 542.1750000023167,
		"probeLeft": true,
		"salient": true,
		"trial_type": "toj",
		"trial_index": 73,
		"time_elapsed": 96813,
		"internal_node_id": "0.0-5.0-0.2-0.57"
	},
	{
		"type": "toj",
		"soa": -100,
		"probe_key": "f",
		"reference_key": "j",
		"probe_element": {},
		"reference_element": {},
		"fixation_time": 400,
		"fixation_mark_html": "<img class='toj-fixation-mark absolute-position' src='./images/fixmark.png'></img>",
		"data": {
			"probeLeft": true,
			"salient": false
		},
		"response_key": "f",
		"response": "probe",
		"response_correct": true,
		"measured_soa": -100.85500000059255,
		"rt": 363.13499999960186,
		"probeLeft": true,
		"salient": false,
		"trial_type": "toj",
		"trial_index": 74,
		"time_elapsed": 97682,
		"internal_node_id": "0.0-5.0-0.2-0.58"
	},
	{
		"type": "toj",
		"soa": -50,
		"probe_key": "j",
		"reference_key": "f",
		"probe_element": {},
		"reference_element": {},
		"fixation_time": 400,
		"fixation_mark_html": "<img class='toj-fixation-mark absolute-position' src='./images/fixmark.png'></img>",
		"data": {
			"probeLeft": false,
			"salient": false
		},
		"response_key": "j",
		"response": "probe",
		"response_correct": true,
		"measured_soa": -51.83000000033644,
		"rt": 498.8249999987602,
		"probeLeft": false,
		"salient": false,
		"trial_type": "toj",
		"trial_index": 75,
		"time_elapsed": 98636,
		"internal_node_id": "0.0-5.0-0.2-0.59"
	},
	{
		"type": "toj",
		"soa": -150,
		"probe_key": "f",
		"reference_key": "j",
		"probe_element": {},
		"reference_element": {},
		"fixation_time": 400,
		"fixation_mark_html": "<img class='toj-fixation-mark absolute-position' src='./images/fixmark.png'></img>",
		"data": {
			"probeLeft": true,
			"salient": false
		},
		"response_key": "f",
		"response": "probe",
		"response_correct": true,
		"measured_soa": -155.5899999984831,
		"rt": 392.13999999992666,
		"probeLeft": true,
		"salient": false,
		"trial_type": "toj",
		"trial_index": 76,
		"time_elapsed": 99586,
		"internal_node_id": "0.0-5.0-0.2-0.60"
	},
	{
		"type": "toj",
		"soa": 100,
		"probe_key": "f",
		"reference_key": "j",
		"probe_element": {},
		"reference_element": {},
		"fixation_time": 400,
		"fixation_mark_html": "<img class='toj-fixation-mark absolute-position' src='./images/fixmark.png'></img>",
		"data": {
			"probeLeft": true,
			"salient": false
		},
		"response_key": "j",
		"response": "reference",
		"response_correct": true,
		"measured_soa": 100.38499999791384,
		"rt": 583.4599999980128,
		"probeLeft": true,
		"salient": false,
		"trial_type": "toj",
		"trial_index": 77,
		"time_elapsed": 100674,
		"internal_node_id": "0.0-5.0-0.2-0.61"
	},
	{
		"type": "toj",
		"soa": -50,
		"probe_key": "f",
		"reference_key": "j",
		"probe_element": {},
		"reference_element": {},
		"fixation_time": 400,
		"fixation_mark_html": "<img class='toj-fixation-mark absolute-position' src='./images/fixmark.png'></img>",
		"data": {
			"probeLeft": true,
			"salient": false
		},
		"response_key": "f",
		"response": "probe",
		"response_correct": true,
		"measured_soa": -51.484999999956926,
		"rt": 443.10500000210595,
		"probeLeft": true,
		"salient": false,
		"trial_type": "toj",
		"trial_index": 78,
		"time_elapsed": 101575,
		"internal_node_id": "0.0-5.0-0.2-0.62"
	},
	{
		"type": "toj",
		"soa": 0,
		"probe_key": "f",
		"reference_key": "j",
		"probe_element": {},
		"reference_element": {},
		"fixation_time": 400,
		"fixation_mark_html": "<img class='toj-fixation-mark absolute-position' src='./images/fixmark.png'></img>",
		"data": {
			"probeLeft": true,
			"salient": true
		},
		"response_key": "f",
		"response": "probe",
		"response_correct": true,
		"measured_soa": 0.1650000012887176,
		"rt": 681.7950000004203,
		"probeLeft": true,
		"salient": true,
		"trial_type": "toj",
		"trial_index": 79,
		"time_elapsed": 102663,
		"internal_node_id": "0.0-5.0-0.2-0.63"
	},
	{
		"type": "toj",
		"soa": 150,
		"probe_key": "f",
		"reference_key": "j",
		"probe_element": {},
		"reference_element": {},
		"fixation_time": 400,
		"fixation_mark_html": "<img class='toj-fixation-mark absolute-position' src='./images/fixmark.png'></img>",
		"data": {
			"probeLeft": true,
			"salient": true
		},
		"response_key": "j",
		"response": "reference",
		"response_correct": true,
		"measured_soa": 152.40500000072643,
		"rt": 937.4549999993178,
		"probeLeft": true,
		"salient": true,
		"trial_type": "toj",
		"trial_index": 80,
		"time_elapsed": 104156,
		"internal_node_id": "0.0-5.0-0.2-0.64"
	},
	{
		"type": "toj",
		"soa": 0,
		"probe_key": "j",
		"reference_key": "f",
		"probe_element": {},
		"reference_element": {},
		"fixation_time": 400,
		"fixation_mark_html": "<img class='toj-fixation-mark absolute-position' src='./images/fixmark.png'></img>",
		"data": {
			"probeLeft": false,
			"salient": false
		},
		"response_key": "f",
		"response": "reference",
		"response_correct": true,
		"measured_soa": 0.07000000186963007,
		"rt": 562.0850000013888,
		"probeLeft": false,
		"salient": false,
		"trial_type": "toj",
		"trial_index": 81,
		"time_elapsed": 105122,
		"internal_node_id": "0.0-5.0-0.2-0.65"
	},
	{
		"type": "toj",
		"soa": -150,
		"probe_key": "f",
		"reference_key": "j",
		"probe_element": {},
		"reference_element": {},
		"fixation_time": 400,
		"fixation_mark_html": "<img class='toj-fixation-mark absolute-position' src='./images/fixmark.png'></img>",
		"data": {
			"probeLeft": true,
			"salient": true
		},
		"response_key": "f",
		"response": "probe",
		"response_correct": true,
		"measured_soa": -150.50999999948544,
		"rt": 313.2049999985611,
		"probeLeft": true,
		"salient": true,
		"trial_type": "toj",
		"trial_index": 82,
		"time_elapsed": 105989,
		"internal_node_id": "0.0-5.0-0.2-0.66"
	},
	{
		"type": "toj",
		"soa": 50,
		"probe_key": "j",
		"reference_key": "f",
		"probe_element": {},
		"reference_element": {},
		"fixation_time": 400,
		"fixation_mark_html": "<img class='toj-fixation-mark absolute-position' src='./images/fixmark.png'></img>",
		"data": {
			"probeLeft": false,
			"salient": false
		},
		"response_key": "f",
		"response": "reference",
		"response_correct": true,
		"measured_soa": 51.574999997683335,
		"rt": 578.5200000027544,
		"probeLeft": false,
		"salient": false,
		"trial_type": "toj",
		"trial_index": 83,
		"time_elapsed": 107023,
		"internal_node_id": "0.0-5.0-0.2-0.67"
	},
	{
		"type": "toj",
		"soa": 100,
		"probe_key": "j",
		"reference_key": "f",
		"probe_element": {},
		"reference_element": {},
		"fixation_time": 400,
		"fixation_mark_html": "<img class='toj-fixation-mark absolute-position' src='./images/fixmark.png'></img>",
		"data": {
			"probeLeft": false,
			"salient": true
		},
		"response_key": "j",
		"response": "probe",
		"response_correct": false,
		"measured_soa": 100.94500000195694,
		"rt": 558.0300000001444,
		"probeLeft": false,
		"salient": true,
		"trial_type": "toj",
		"trial_index": 84,
		"time_elapsed": 108085,
		"internal_node_id": "0.0-5.0-0.2-0.68"
	},
	{
		"type": "toj",
		"soa": 100,
		"probe_key": "f",
		"reference_key": "j",
		"probe_element": {},
		"reference_element": {},
		"fixation_time": 400,
		"fixation_mark_html": "<img class='toj-fixation-mark absolute-position' src='./images/fixmark.png'></img>",
		"data": {
			"probeLeft": true,
			"salient": true
		},
		"response_key": "j",
		"response": "reference",
		"response_correct": true,
		"measured_soa": 100.57500000038999,
		"rt": 560.7199999976729,
		"probeLeft": true,
		"salient": true,
		"trial_type": "toj",
		"trial_index": 85,
		"time_elapsed": 109151,
		"internal_node_id": "0.0-5.0-0.2-0.69"
	},
	{
		"type": "toj",
		"soa": -50,
		"probe_key": "f",
		"reference_key": "j",
		"probe_element": {},
		"reference_element": {},
		"fixation_time": 400,
		"fixation_mark_html": "<img class='toj-fixation-mark absolute-position' src='./images/fixmark.png'></img>",
		"data": {
			"probeLeft": true,
			"salient": true
		},
		"response_key": "f",
		"response": "probe",
		"response_correct": true,
		"measured_soa": -52.35500000344473,
		"rt": 618.784999998752,
		"probeLeft": true,
		"salient": true,
		"trial_type": "toj",
		"trial_index": 86,
		"time_elapsed": 110227,
		"internal_node_id": "0.0-5.0-0.2-0.70"
	},
	{
		"type": "toj",
		"soa": 50,
		"probe_key": "f",
		"reference_key": "j",
		"probe_element": {},
		"reference_element": {},
		"fixation_time": 400,
		"fixation_mark_html": "<img class='toj-fixation-mark absolute-position' src='./images/fixmark.png'></img>",
		"data": {
			"probeLeft": true,
			"salient": false
		},
		"response_key": "j",
		"response": "reference",
		"response_correct": true,
		"measured_soa": 50.40500000177417,
		"rt": 516.5550000019721,
		"probeLeft": true,
		"salient": false,
		"trial_type": "toj",
		"trial_index": 87,
		"time_elapsed": 111200,
		"internal_node_id": "0.0-5.0-0.2-0.71"
	},
	{
		"type": "toj",
		"soa": 100,
		"probe_key": "j",
		"reference_key": "f",
		"probe_element": {},
		"reference_element": {},
		"fixation_time": 400,
		"fixation_mark_html": "<img class='toj-fixation-mark absolute-position' src='./images/fixmark.png'></img>",
		"data": {
			"probeLeft": false,
			"salient": false
		},
		"response_key": "f",
		"response": "reference",
		"response_correct": true,
		"measured_soa": 101.20499999902677,
		"rt": 471.97500000038417,
		"probeLeft": false,
		"salient": false,
		"trial_type": "toj",
		"trial_index": 88,
		"time_elapsed": 112175,
		"internal_node_id": "0.0-5.0-0.2-0.72"
	},
	{
		"type": "toj",
		"soa": -150,
		"probe_key": "j",
		"reference_key": "f",
		"probe_element": {},
		"reference_element": {},
		"fixation_time": 400,
		"fixation_mark_html": "<img class='toj-fixation-mark absolute-position' src='./images/fixmark.png'></img>",
		"data": {
			"probeLeft": false,
			"salient": false
		},
		"response_key": "j",
		"response": "probe",
		"response_correct": true,
		"measured_soa": -152.62000000075204,
		"rt": 426.59999999887077,
		"probeLeft": false,
		"salient": false,
		"trial_type": "toj",
		"trial_index": 89,
		"time_elapsed": 113161,
		"internal_node_id": "0.0-5.0-0.2-0.73"
	},
	{
		"type": "toj",
		"soa": 50,
		"probe_key": "j",
		"reference_key": "f",
		"probe_element": {},
		"reference_element": {},
		"fixation_time": 400,
		"fixation_mark_html": "<img class='toj-fixation-mark absolute-position' src='./images/fixmark.png'></img>",
		"data": {
			"probeLeft": false,
			"salient": true
		},
		"response_key": "f",
		"response": "reference",
		"response_correct": true,
		"measured_soa": 53.08999999760999,
		"rt": 601.1999999973341,
		"probeLeft": false,
		"salient": true,
		"trial_type": "toj",
		"trial_index": 90,
		"time_elapsed": 114218,
		"internal_node_id": "0.0-5.0-0.2-0.74"
	},
	{
		"type": "toj",
		"soa": 150,
		"probe_key": "f",
		"reference_key": "j",
		"probe_element": {},
		"reference_element": {},
		"fixation_time": 400,
		"fixation_mark_html": "<img class='toj-fixation-mark absolute-position' src='./images/fixmark.png'></img>",
		"data": {
			"probeLeft": true,
			"salient": false
		},
		"response_key": "j",
		"response": "reference",
		"response_correct": true,
		"measured_soa": 154.9699999995937,
		"rt": 418.47499999857973,
		"probeLeft": true,
		"salient": false,
		"trial_type": "toj",
		"trial_index": 91,
		"time_elapsed": 115198,
		"internal_node_id": "0.0-5.0-0.2-0.75"
	},
	{
		"type": "toj",
		"soa": -100,
		"probe_key": "f",
		"reference_key": "j",
		"probe_element": {},
		"reference_element": {},
		"fixation_time": 400,
		"fixation_mark_html": "<img class='toj-fixation-mark absolute-position' src='./images/fixmark.png'></img>",
		"data": {
			"probeLeft": true,
			"salient": true
		},
		"response_key": "f",
		"response": "probe",
		"response_correct": true,
		"measured_soa": -100.78000000066822,
		"rt": 401.2799999982235,
		"probeLeft": true,
		"salient": true,
		"trial_type": "toj",
		"trial_index": 92,
		"time_elapsed": 116102,
		"internal_node_id": "0.0-5.0-0.2-0.76"
	},
	{
		"type": "toj",
		"soa": -100,
		"probe_key": "j",
		"reference_key": "f",
		"probe_element": {},
		"reference_element": {},
		"fixation_time": 400,
		"fixation_mark_html": "<img class='toj-fixation-mark absolute-position' src='./images/fixmark.png'></img>",
		"data": {
			"probeLeft": false,
			"salient": true
		},
		"response_key": "j",
		"response": "probe",
		"response_correct": true,
		"measured_soa": -101.4549999999872,
		"rt": 596.5849999993225,
		"probeLeft": false,
		"salient": true,
		"trial_type": "toj",
		"trial_index": 93,
		"time_elapsed": 117206,
		"internal_node_id": "0.0-5.0-0.2-0.77"
	},
	{
		"type": "toj",
		"soa": 150,
		"probe_key": "j",
		"reference_key": "f",
		"probe_element": {},
		"reference_element": {},
		"fixation_time": 400,
		"fixation_mark_html": "<img class='toj-fixation-mark absolute-position' src='./images/fixmark.png'></img>",
		"data": {
			"probeLeft": false,
			"salient": true
		},
		"response_key": "f",
		"response": "reference",
		"response_correct": true,
		"measured_soa": 154.4949999988603,
		"rt": 501.8100000015693,
		"probeLeft": false,
		"salient": true,
		"trial_type": "toj",
		"trial_index": 94,
		"time_elapsed": 118266,
		"internal_node_id": "0.0-5.0-0.2-0.78"
	},
	{
		"type": "toj",
		"soa": -100,
		"probe_key": "j",
		"reference_key": "f",
		"probe_element": {},
		"reference_element": {},
		"fixation_time": 400,
		"fixation_mark_html": "<img class='toj-fixation-mark absolute-position' src='./images/fixmark.png'></img>",
		"data": {
			"probeLeft": false,
			"salient": false
		},
		"response_key": "j",
		"response": "probe",
		"response_correct": true,
		"measured_soa": -101.52999999991152,
		"rt": 519.8500000005879,
		"probeLeft": false,
		"salient": false,
		"trial_type": "toj",
		"trial_index": 95,
		"time_elapsed": 119294,
		"internal_node_id": "0.0-5.0-0.2-0.79"
	},
	{
		"type": "toj",
		"soa": -150,
		"probe_key": "j",
		"reference_key": "f",
		"probe_element": {},
		"reference_element": {},
		"fixation_time": 400,
		"fixation_mark_html": "<img class='toj-fixation-mark absolute-position' src='./images/fixmark.png'></img>",
		"data": {
			"probeLeft": false,
			"salient": true
		},
		"response_key": "j",
		"response": "probe",
		"response_correct": true,
		"measured_soa": -151.2250000014319,
		"rt": 436.1900000003516,
		"probeLeft": false,
		"salient": true,
		"trial_type": "toj",
		"trial_index": 96,
		"time_elapsed": 120288,
		"internal_node_id": "0.0-5.0-0.2-0.80"
	},
	{
		"type": "toj",
		"soa": 0,
		"probe_key": "f",
		"reference_key": "j",
		"probe_element": {},
		"reference_element": {},
		"fixation_time": 400,
		"fixation_mark_html": "<img class='toj-fixation-mark absolute-position' src='./images/fixmark.png'></img>",
		"data": {
			"probeLeft": true,
			"salient": false
		},
		"response_key": "j",
		"response": "reference",
		"response_correct": true,
		"measured_soa": 0.13499999840860255,
		"rt": 598.4050000006391,
		"probeLeft": true,
		"salient": false,
		"trial_type": "toj",
		"trial_index": 97,
		"time_elapsed": 121290,
		"internal_node_id": "0.0-5.0-0.2-0.81"
	},
	{
		"type": "toj",
		"soa": -50,
		"probe_key": "j",
		"reference_key": "f",
		"probe_element": {},
		"reference_element": {},
		"fixation_time": 400,
		"fixation_mark_html": "<img class='toj-fixation-mark absolute-position' src='./images/fixmark.png'></img>",
		"data": {
			"probeLeft": false,
			"salient": true
		},
		"response_key": "j",
		"response": "probe",
		"response_correct": true,
		"measured_soa": -51.66499999904772,
		"rt": 500.0550000004296,
		"probeLeft": false,
		"salient": true,
		"trial_type": "toj",
		"trial_index": 98,
		"time_elapsed": 122248,
		"internal_node_id": "0.0-5.0-0.2-0.82"
	},
	{
		"type": "toj",
		"soa": 0,
		"probe_key": "j",
		"reference_key": "f",
		"probe_element": {},
		"reference_element": {},
		"fixation_time": 400,
		"fixation_mark_html": "<img class='toj-fixation-mark absolute-position' src='./images/fixmark.png'></img>",
		"data": {
			"probeLeft": false,
			"salient": true
		},
		"response_key": "f",
		"response": "reference",
		"response_correct": true,
		"measured_soa": 0.05999999848427251,
		"rt": 478.8200000002689,
		"probeLeft": false,
		"salient": true,
		"trial_type": "toj",
		"trial_index": 99,
		"time_elapsed": 123133,
		"internal_node_id": "0.0-5.0-0.2-0.83"
	},
	{
		"rt": 876,
		"stimulus": "<p>You finished block 3 of 5.<p/><p>Press any key to continue.</p>",
		"key_press": 32,
		"trial_type": "html-keyboard-response",
		"trial_index": 100,
		"time_elapsed": 124010,
		"internal_node_id": "0.0-5.0-1.2"
	},
	{
		"type": "toj",
		"soa": 50,
		"probe_key": "j",
		"reference_key": "f",
		"probe_element": {},
		"reference_element": {},
		"fixation_time": 400,
		"fixation_mark_html": "<img class='toj-fixation-mark absolute-position' src='./images/fixmark.png'></img>",
		"data": {
			"probeLeft": false,
			"salient": true
		},
		"response_key": "f",
		"response": "reference",
		"response_correct": true,
		"measured_soa": 51.60500000056345,
		"rt": 450.7950000006531,
		"probeLeft": false,
		"salient": true,
		"trial_type": "toj",
		"trial_index": 101,
		"time_elapsed": 124919,
		"internal_node_id": "0.0-5.0-0.3-0.84"
	},
	{
		"type": "toj",
		"soa": 150,
		"probe_key": "j",
		"reference_key": "f",
		"probe_element": {},
		"reference_element": {},
		"fixation_time": 400,
		"fixation_mark_html": "<img class='toj-fixation-mark absolute-position' src='./images/fixmark.png'></img>",
		"data": {
			"probeLeft": false,
			"salient": false
		},
		"response_key": "f",
		"response": "reference",
		"response_correct": true,
		"measured_soa": 151.47999999680906,
		"rt": 478.31000000223867,
		"probeLeft": false,
		"salient": false,
		"trial_type": "toj",
		"trial_index": 102,
		"time_elapsed": 125955,
		"internal_node_id": "0.0-5.0-0.3-0.85"
	},
	{
		"type": "toj",
		"soa": -50,
		"probe_key": "j",
		"reference_key": "f",
		"probe_element": {},
		"reference_element": {},
		"fixation_time": 400,
		"fixation_mark_html": "<img class='toj-fixation-mark absolute-position' src='./images/fixmark.png'></img>",
		"data": {
			"probeLeft": false,
			"salient": true
		},
		"response_key": "j",
		"response": "probe",
		"response_correct": true,
		"measured_soa": -50.735000000713626,
		"rt": 508.17499999902793,
		"probeLeft": false,
		"salient": true,
		"trial_type": "toj",
		"trial_index": 103,
		"time_elapsed": 126917,
		"internal_node_id": "0.0-5.0-0.3-0.86"
	},
	{
		"type": "toj",
		"soa": 0,
		"probe_key": "f",
		"reference_key": "j",
		"probe_element": {},
		"reference_element": {},
		"fixation_time": 400,
		"fixation_mark_html": "<img class='toj-fixation-mark absolute-position' src='./images/fixmark.png'></img>",
		"data": {
			"probeLeft": true,
			"salient": false
		},
		"response_key": "f",
		"response": "probe",
		"response_correct": true,
		"measured_soa": 0.08000000161700882,
		"rt": 495.48000000140746,
		"probeLeft": true,
		"salient": false,
		"trial_type": "toj",
		"trial_index": 104,
		"time_elapsed": 127815,
		"internal_node_id": "0.0-5.0-0.3-0.87"
	},
	{
		"type": "toj",
		"soa": -50,
		"probe_key": "f",
		"reference_key": "j",
		"probe_element": {},
		"reference_element": {},
		"fixation_time": 400,
		"fixation_mark_html": "<img class='toj-fixation-mark absolute-position' src='./images/fixmark.png'></img>",
		"data": {
			"probeLeft": true,
			"salient": false
		},
		"response_key": "f",
		"response": "probe",
		"response_correct": true,
		"measured_soa": -52.00999999942724,
		"rt": 513.6700000002747,
		"probeLeft": true,
		"salient": false,
		"trial_type": "toj",
		"trial_index": 105,
		"time_elapsed": 128786,
		"internal_node_id": "0.0-5.0-0.3-0.88"
	},
	{
		"type": "toj",
		"soa": -150,
		"probe_key": "f",
		"reference_key": "j",
		"probe_element": {},
		"reference_element": {},
		"fixation_time": 400,
		"fixation_mark_html": "<img class='toj-fixation-mark absolute-position' src='./images/fixmark.png'></img>",
		"data": {
			"probeLeft": true,
			"salient": false
		},
		"response_key": "f",
		"response": "probe",
		"response_correct": true,
		"measured_soa": -150.9600000026694,
		"rt": 510.245000001305,
		"probeLeft": true,
		"salient": false,
		"trial_type": "toj",
		"trial_index": 106,
		"time_elapsed": 129852,
		"internal_node_id": "0.0-5.0-0.3-0.89"
	},
	{
		"type": "toj",
		"soa": 150,
		"probe_key": "f",
		"reference_key": "j",
		"probe_element": {},
		"reference_element": {},
		"fixation_time": 400,
		"fixation_mark_html": "<img class='toj-fixation-mark absolute-position' src='./images/fixmark.png'></img>",
		"data": {
			"probeLeft": true,
			"salient": false
		},
		"response_key": "j",
		"response": "reference",
		"response_correct": true,
		"measured_soa": 155.33500000310596,
		"rt": 421.2450000013632,
		"probeLeft": true,
		"salient": false,
		"trial_type": "toj",
		"trial_index": 107,
		"time_elapsed": 130835,
		"internal_node_id": "0.0-5.0-0.3-0.90"
	},
	{
		"type": "toj",
		"soa": 100,
		"probe_key": "f",
		"reference_key": "j",
		"probe_element": {},
		"reference_element": {},
		"fixation_time": 400,
		"fixation_mark_html": "<img class='toj-fixation-mark absolute-position' src='./images/fixmark.png'></img>",
		"data": {
			"probeLeft": true,
			"salient": false
		},
		"response_key": "j",
		"response": "reference",
		"response_correct": true,
		"measured_soa": 100.78499999872292,
		"rt": 537.9900000007183,
		"probeLeft": true,
		"salient": false,
		"trial_type": "toj",
		"trial_index": 108,
		"time_elapsed": 131881,
		"internal_node_id": "0.0-5.0-0.3-0.91"
	},
	{
		"type": "toj",
		"soa": -50,
		"probe_key": "j",
		"reference_key": "f",
		"probe_element": {},
		"reference_element": {},
		"fixation_time": 400,
		"fixation_mark_html": "<img class='toj-fixation-mark absolute-position' src='./images/fixmark.png'></img>",
		"data": {
			"probeLeft": false,
			"salient": false
		},
		"response_key": "f",
		"response": "reference",
		"response_correct": false,
		"measured_soa": -51.30500000086613,
		"rt": 521.4499999965483,
		"probeLeft": false,
		"salient": false,
		"trial_type": "toj",
		"trial_index": 109,
		"time_elapsed": 132862,
		"internal_node_id": "0.0-5.0-0.3-0.92"
	},
	{
		"type": "toj",
		"soa": 0,
		"probe_key": "f",
		"reference_key": "j",
		"probe_element": {},
		"reference_element": {},
		"fixation_time": 400,
		"fixation_mark_html": "<img class='toj-fixation-mark absolute-position' src='./images/fixmark.png'></img>",
		"data": {
			"probeLeft": true,
			"salient": true
		},
		"response_key": "f",
		"response": "probe",
		"response_correct": true,
		"measured_soa": 0.08999999772640876,
		"rt": 584.2199999970035,
		"probeLeft": true,
		"salient": true,
		"trial_type": "toj",
		"trial_index": 110,
		"time_elapsed": 133849,
		"internal_node_id": "0.0-5.0-0.3-0.93"
	},
	{
		"type": "toj",
		"soa": 50,
		"probe_key": "j",
		"reference_key": "f",
		"probe_element": {},
		"reference_element": {},
		"fixation_time": 400,
		"fixation_mark_html": "<img class='toj-fixation-mark absolute-position' src='./images/fixmark.png'></img>",
		"data": {
			"probeLeft": false,
			"salient": false
		},
		"response_key": "j",
		"response": "probe",
		"response_correct": false,
		"measured_soa": 50.57500000111759,
		"rt": 616.0250000029919,
		"probeLeft": false,
		"salient": false,
		"trial_type": "toj",
		"trial_index": 111,
		"time_elapsed": 134922,
		"internal_node_id": "0.0-5.0-0.3-0.94"
	},
	{
		"type": "toj",
		"soa": -150,
		"probe_key": "j",
		"reference_key": "f",
		"probe_element": {},
		"reference_element": {},
		"fixation_time": 400,
		"fixation_mark_html": "<img class='toj-fixation-mark absolute-position' src='./images/fixmark.png'></img>",
		"data": {
			"probeLeft": false,
			"salient": true
		},
		"response_key": "j",
		"response": "probe",
		"response_correct": true,
		"measured_soa": -152.09999999933643,
		"rt": 425.76499999995576,
		"probeLeft": false,
		"salient": true,
		"trial_type": "toj",
		"trial_index": 112,
		"time_elapsed": 135904,
		"internal_node_id": "0.0-5.0-0.3-0.95"
	},
	{
		"type": "toj",
		"soa": 150,
		"probe_key": "j",
		"reference_key": "f",
		"probe_element": {},
		"reference_element": {},
		"fixation_time": 400,
		"fixation_mark_html": "<img class='toj-fixation-mark absolute-position' src='./images/fixmark.png'></img>",
		"data": {
			"probeLeft": false,
			"salient": true
		},
		"response_key": "f",
		"response": "reference",
		"response_correct": true,
		"measured_soa": 150.97500000047148,
		"rt": 488.39500000030966,
		"probeLeft": false,
		"salient": true,
		"trial_type": "toj",
		"trial_index": 113,
		"time_elapsed": 136947,
		"internal_node_id": "0.0-5.0-0.3-0.96"
	},
	{
		"type": "toj",
		"soa": 0,
		"probe_key": "j",
		"reference_key": "f",
		"probe_element": {},
		"reference_element": {},
		"fixation_time": 400,
		"fixation_mark_html": "<img class='toj-fixation-mark absolute-position' src='./images/fixmark.png'></img>",
		"data": {
			"probeLeft": false,
			"salient": true
		},
		"response_key": "f",
		"response": "reference",
		"response_correct": true,
		"measured_soa": 0.06000000212225132,
		"rt": 693.8350000018545,
		"probeLeft": false,
		"salient": true,
		"trial_type": "toj",
		"trial_index": 114,
		"time_elapsed": 138045,
		"internal_node_id": "0.0-5.0-0.3-0.97"
	},
	{
		"type": "toj",
		"soa": 50,
		"probe_key": "f",
		"reference_key": "j",
		"probe_element": {},
		"reference_element": {},
		"fixation_time": 400,
		"fixation_mark_html": "<img class='toj-fixation-mark absolute-position' src='./images/fixmark.png'></img>",
		"data": {
			"probeLeft": true,
			"salient": false
		},
		"response_key": "j",
		"response": "reference",
		"response_correct": true,
		"measured_soa": 50.439999999071006,
		"rt": 674.7600000016973,
		"probeLeft": true,
		"salient": false,
		"trial_type": "toj",
		"trial_index": 115,
		"time_elapsed": 139175,
		"internal_node_id": "0.0-5.0-0.3-0.98"
	},
	{
		"type": "toj",
		"soa": 0,
		"probe_key": "j",
		"reference_key": "f",
		"probe_element": {},
		"reference_element": {},
		"fixation_time": 400,
		"fixation_mark_html": "<img class='toj-fixation-mark absolute-position' src='./images/fixmark.png'></img>",
		"data": {
			"probeLeft": false,
			"salient": false
		},
		"response_key": "j",
		"response": "probe",
		"response_correct": true,
		"measured_soa": 0.0850000033096876,
		"rt": 930.5800000001909,
		"probeLeft": false,
		"salient": false,
		"trial_type": "toj",
		"trial_index": 116,
		"time_elapsed": 140511,
		"internal_node_id": "0.0-5.0-0.3-0.99"
	},
	{
		"type": "toj",
		"soa": 100,
		"probe_key": "j",
		"reference_key": "f",
		"probe_element": {},
		"reference_element": {},
		"fixation_time": 400,
		"fixation_mark_html": "<img class='toj-fixation-mark absolute-position' src='./images/fixmark.png'></img>",
		"data": {
			"probeLeft": false,
			"salient": true
		},
		"response_key": "j",
		"response": "probe",
		"response_correct": false,
		"measured_soa": 100.52499999801512,
		"rt": 1544.464999999036,
		"probeLeft": false,
		"salient": true,
		"trial_type": "toj",
		"trial_index": 117,
		"time_elapsed": 142560,
		"internal_node_id": "0.0-5.0-0.3-0.100"
	},
	{
		"type": "toj",
		"soa": 100,
		"probe_key": "j",
		"reference_key": "f",
		"probe_element": {},
		"reference_element": {},
		"fixation_time": 400,
		"fixation_mark_html": "<img class='toj-fixation-mark absolute-position' src='./images/fixmark.png'></img>",
		"data": {
			"probeLeft": false,
			"salient": false
		},
		"response_key": "f",
		"response": "reference",
		"response_correct": true,
		"measured_soa": 100.8399999991525,
		"rt": 623.0100000029779,
		"probeLeft": false,
		"salient": false,
		"trial_type": "toj",
		"trial_index": 118,
		"time_elapsed": 143690,
		"internal_node_id": "0.0-5.0-0.3-0.101"
	},
	{
		"type": "toj",
		"soa": -100,
		"probe_key": "f",
		"reference_key": "j",
		"probe_element": {},
		"reference_element": {},
		"fixation_time": 400,
		"fixation_mark_html": "<img class='toj-fixation-mark absolute-position' src='./images/fixmark.png'></img>",
		"data": {
			"probeLeft": true,
			"salient": true
		},
		"response_key": "f",
		"response": "probe",
		"response_correct": true,
		"measured_soa": -100.76000000117347,
		"rt": 677.575000001525,
		"probeLeft": true,
		"salient": true,
		"trial_type": "toj",
		"trial_index": 119,
		"time_elapsed": 144871,
		"internal_node_id": "0.0-5.0-0.3-0.102"
	},
	{
		"type": "toj",
		"soa": -100,
		"probe_key": "j",
		"reference_key": "f",
		"probe_element": {},
		"reference_element": {},
		"fixation_time": 400,
		"fixation_mark_html": "<img class='toj-fixation-mark absolute-position' src='./images/fixmark.png'></img>",
		"data": {
			"probeLeft": false,
			"salient": false
		},
		"response_key": "j",
		"response": "probe",
		"response_correct": true,
		"measured_soa": -100.68499999761116,
		"rt": 478.3549999992829,
		"probeLeft": false,
		"salient": false,
		"trial_type": "toj",
		"trial_index": 120,
		"time_elapsed": 145856,
		"internal_node_id": "0.0-5.0-0.3-0.103"
	},
	{
		"type": "toj",
		"soa": -150,
		"probe_key": "j",
		"reference_key": "f",
		"probe_element": {},
		"reference_element": {},
		"fixation_time": 400,
		"fixation_mark_html": "<img class='toj-fixation-mark absolute-position' src='./images/fixmark.png'></img>",
		"data": {
			"probeLeft": false,
			"salient": false
		},
		"response_key": "j",
		"response": "probe",
		"response_correct": true,
		"measured_soa": -155.62000000136322,
		"rt": 453.23499999722117,
		"probeLeft": false,
		"salient": false,
		"trial_type": "toj",
		"trial_index": 121,
		"time_elapsed": 146872,
		"internal_node_id": "0.0-5.0-0.3-0.104"
	},
	{
		"type": "toj",
		"soa": 150,
		"probe_key": "f",
		"reference_key": "j",
		"probe_element": {},
		"reference_element": {},
		"fixation_time": 400,
		"fixation_mark_html": "<img class='toj-fixation-mark absolute-position' src='./images/fixmark.png'></img>",
		"data": {
			"probeLeft": true,
			"salient": true
		},
		"response_key": "j",
		"response": "reference",
		"response_correct": true,
		"measured_soa": 153.7750000024971,
		"rt": 1289.0199999965262,
		"probeLeft": true,
		"salient": true,
		"trial_type": "toj",
		"trial_index": 122,
		"time_elapsed": 148720,
		"internal_node_id": "0.0-5.0-0.3-0.105"
	},
	{
		"type": "toj",
		"soa": -150,
		"probe_key": "f",
		"reference_key": "j",
		"probe_element": {},
		"reference_element": {},
		"fixation_time": 400,
		"fixation_mark_html": "<img class='toj-fixation-mark absolute-position' src='./images/fixmark.png'></img>",
		"data": {
			"probeLeft": true,
			"salient": true
		},
		"response_key": "f",
		"response": "probe",
		"response_correct": true,
		"measured_soa": -150.789999999688,
		"rt": 475.46000000147615,
		"probeLeft": true,
		"salient": true,
		"trial_type": "toj",
		"trial_index": 123,
		"time_elapsed": 149752,
		"internal_node_id": "0.0-5.0-0.3-0.106"
	},
	{
		"type": "toj",
		"soa": -100,
		"probe_key": "j",
		"reference_key": "f",
		"probe_element": {},
		"reference_element": {},
		"fixation_time": 400,
		"fixation_mark_html": "<img class='toj-fixation-mark absolute-position' src='./images/fixmark.png'></img>",
		"data": {
			"probeLeft": false,
			"salient": true
		},
		"response_key": "f",
		"response": "reference",
		"response_correct": false,
		"measured_soa": -100.82500000135042,
		"rt": 3225.945000001957,
		"probeLeft": false,
		"salient": true,
		"trial_type": "toj",
		"trial_index": 124,
		"time_elapsed": 153485,
		"internal_node_id": "0.0-5.0-0.3-0.107"
	},
	{
		"type": "toj",
		"soa": 50,
		"probe_key": "f",
		"reference_key": "j",
		"probe_element": {},
		"reference_element": {},
		"fixation_time": 400,
		"fixation_mark_html": "<img class='toj-fixation-mark absolute-position' src='./images/fixmark.png'></img>",
		"data": {
			"probeLeft": true,
			"salient": true
		},
		"response_key": "f",
		"response": "probe",
		"response_correct": false,
		"measured_soa": 51.255000002129236,
		"rt": 2788.570000000618,
		"probeLeft": true,
		"salient": true,
		"trial_type": "toj",
		"trial_index": 125,
		"time_elapsed": 156731,
		"internal_node_id": "0.0-5.0-0.3-0.108"
	},
	{
		"type": "toj",
		"soa": -50,
		"probe_key": "f",
		"reference_key": "j",
		"probe_element": {},
		"reference_element": {},
		"fixation_time": 400,
		"fixation_mark_html": "<img class='toj-fixation-mark absolute-position' src='./images/fixmark.png'></img>",
		"data": {
			"probeLeft": true,
			"salient": true
		},
		"response_key": "f",
		"response": "probe",
		"response_correct": true,
		"measured_soa": -52.42500000167638,
		"rt": 437.73000000146567,
		"probeLeft": true,
		"salient": true,
		"trial_type": "toj",
		"trial_index": 126,
		"time_elapsed": 157625,
		"internal_node_id": "0.0-5.0-0.3-0.109"
	},
	{
		"type": "toj",
		"soa": -100,
		"probe_key": "f",
		"reference_key": "j",
		"probe_element": {},
		"reference_element": {},
		"fixation_time": 400,
		"fixation_mark_html": "<img class='toj-fixation-mark absolute-position' src='./images/fixmark.png'></img>",
		"data": {
			"probeLeft": true,
			"salient": false
		},
		"response_key": "f",
		"response": "probe",
		"response_correct": true,
		"measured_soa": -100.59499999988475,
		"rt": 853.5200000005716,
		"probeLeft": true,
		"salient": false,
		"trial_type": "toj",
		"trial_index": 127,
		"time_elapsed": 158981,
		"internal_node_id": "0.0-5.0-0.3-0.110"
	},
	{
		"type": "toj",
		"soa": 100,
		"probe_key": "f",
		"reference_key": "j",
		"probe_element": {},
		"reference_element": {},
		"fixation_time": 400,
		"fixation_mark_html": "<img class='toj-fixation-mark absolute-position' src='./images/fixmark.png'></img>",
		"data": {
			"probeLeft": true,
			"salient": true
		},
		"response_key": "j",
		"response": "reference",
		"response_correct": true,
		"measured_soa": 100.64000000056694,
		"rt": 847.4699999969744,
		"probeLeft": true,
		"salient": true,
		"trial_type": "toj",
		"trial_index": 128,
		"time_elapsed": 160335,
		"internal_node_id": "0.0-5.0-0.3-0.111"
	},
	{
		"rt": 752,
		"stimulus": "<p>You finished block 4 of 5.<p/><p>Press any key to continue.</p>",
		"key_press": 32,
		"trial_type": "html-keyboard-response",
		"trial_index": 129,
		"time_elapsed": 161088,
		"internal_node_id": "0.0-5.0-1.3"
	},
	{
		"type": "toj",
		"soa": 50,
		"probe_key": "f",
		"reference_key": "j",
		"probe_element": {},
		"reference_element": {},
		"fixation_time": 400,
		"fixation_mark_html": "<img class='toj-fixation-mark absolute-position' src='./images/fixmark.png'></img>",
		"data": {
			"probeLeft": true,
			"salient": true
		},
		"response_key": "f",
		"response": "probe",
		"response_correct": false,
		"measured_soa": 53.214999999909196,
		"rt": 460.5300000002899,
		"probeLeft": true,
		"salient": true,
		"trial_type": "toj",
		"trial_index": 130,
		"time_elapsed": 162009,
		"internal_node_id": "0.0-5.0-0.4-0.112"
	},
	{
		"type": "toj",
		"soa": -100,
		"probe_key": "f",
		"reference_key": "j",
		"probe_element": {},
		"reference_element": {},
		"fixation_time": 400,
		"fixation_mark_html": "<img class='toj-fixation-mark absolute-position' src='./images/fixmark.png'></img>",
		"data": {
			"probeLeft": true,
			"salient": false
		},
		"response_key": "j",
		"response": "reference",
		"response_correct": false,
		"measured_soa": -100.42999999859603,
		"rt": 649.0799999992305,
		"probeLeft": true,
		"salient": false,
		"trial_type": "toj",
		"trial_index": 131,
		"time_elapsed": 163163,
		"internal_node_id": "0.0-5.0-0.4-0.113"
	},
	{
		"type": "toj",
		"soa": -50,
		"probe_key": "f",
		"reference_key": "j",
		"probe_element": {},
		"reference_element": {},
		"fixation_time": 400,
		"fixation_mark_html": "<img class='toj-fixation-mark absolute-position' src='./images/fixmark.png'></img>",
		"data": {
			"probeLeft": true,
			"salient": true
		},
		"response_key": "f",
		"response": "probe",
		"response_correct": true,
		"measured_soa": -50.54000000018277,
		"rt": 833.1849999995029,
		"probeLeft": true,
		"salient": true,
		"trial_type": "toj",
		"trial_index": 132,
		"time_elapsed": 164451,
		"internal_node_id": "0.0-5.0-0.4-0.114"
	},
	{
		"type": "toj",
		"soa": -150,
		"probe_key": "j",
		"reference_key": "f",
		"probe_element": {},
		"reference_element": {},
		"fixation_time": 400,
		"fixation_mark_html": "<img class='toj-fixation-mark absolute-position' src='./images/fixmark.png'></img>",
		"data": {
			"probeLeft": false,
			"salient": false
		},
		"response_key": "f",
		"response": "reference",
		"response_correct": false,
		"measured_soa": -150.80500000112806,
		"rt": 539.8499999973865,
		"probeLeft": false,
		"salient": false,
		"trial_type": "toj",
		"trial_index": 133,
		"time_elapsed": 165548,
		"internal_node_id": "0.0-5.0-0.4-0.115"
	},
	{
		"type": "toj",
		"soa": 0,
		"probe_key": "j",
		"reference_key": "f",
		"probe_element": {},
		"reference_element": {},
		"fixation_time": 400,
		"fixation_mark_html": "<img class='toj-fixation-mark absolute-position' src='./images/fixmark.png'></img>",
		"data": {
			"probeLeft": false,
			"salient": true
		},
		"response_key": "f",
		"response": "reference",
		"response_correct": true,
		"measured_soa": 0.09499999941908754,
		"rt": 543.1000000025961,
		"probeLeft": false,
		"salient": true,
		"trial_type": "toj",
		"trial_index": 134,
		"time_elapsed": 166495,
		"internal_node_id": "0.0-5.0-0.4-0.116"
	},
	{
		"type": "toj",
		"soa": 150,
		"probe_key": "f",
		"reference_key": "j",
		"probe_element": {},
		"reference_element": {},
		"fixation_time": 400,
		"fixation_mark_html": "<img class='toj-fixation-mark absolute-position' src='./images/fixmark.png'></img>",
		"data": {
			"probeLeft": true,
			"salient": true
		},
		"response_key": "j",
		"response": "reference",
		"response_correct": true,
		"measured_soa": 154.8399999992398,
		"rt": 420.23499999777414,
		"probeLeft": true,
		"salient": true,
		"trial_type": "toj",
		"trial_index": 135,
		"time_elapsed": 167472,
		"internal_node_id": "0.0-5.0-0.4-0.117"
	},
	{
		"type": "toj",
		"soa": -50,
		"probe_key": "f",
		"reference_key": "j",
		"probe_element": {},
		"reference_element": {},
		"fixation_time": 400,
		"fixation_mark_html": "<img class='toj-fixation-mark absolute-position' src='./images/fixmark.png'></img>",
		"data": {
			"probeLeft": true,
			"salient": false
		},
		"response_key": "f",
		"response": "probe",
		"response_correct": true,
		"measured_soa": -50.68500000197673,
		"rt": 404.3200000014622,
		"probeLeft": true,
		"salient": false,
		"trial_type": "toj",
		"trial_index": 136,
		"time_elapsed": 168332,
		"internal_node_id": "0.0-5.0-0.4-0.118"
	},
	{
		"type": "toj",
		"soa": -50,
		"probe_key": "j",
		"reference_key": "f",
		"probe_element": {},
		"reference_element": {},
		"fixation_time": 400,
		"fixation_mark_html": "<img class='toj-fixation-mark absolute-position' src='./images/fixmark.png'></img>",
		"data": {
			"probeLeft": false,
			"salient": false
		},
		"response_key": "j",
		"response": "probe",
		"response_correct": true,
		"measured_soa": -51.504999999451684,
		"rt": 502.5000000023283,
		"probeLeft": false,
		"salient": false,
		"trial_type": "toj",
		"trial_index": 137,
		"time_elapsed": 169289,
		"internal_node_id": "0.0-5.0-0.4-0.119"
	},
	{
		"type": "toj",
		"soa": 100,
		"probe_key": "j",
		"reference_key": "f",
		"probe_element": {},
		"reference_element": {},
		"fixation_time": 400,
		"fixation_mark_html": "<img class='toj-fixation-mark absolute-position' src='./images/fixmark.png'></img>",
		"data": {
			"probeLeft": false,
			"salient": false
		},
		"response_key": "f",
		"response": "reference",
		"response_correct": true,
		"measured_soa": 101.85999999885098,
		"rt": 360.1149999994959,
		"probeLeft": false,
		"salient": false,
		"trial_type": "toj",
		"trial_index": 138,
		"time_elapsed": 170157,
		"internal_node_id": "0.0-5.0-0.4-0.120"
	},
	{
		"type": "toj",
		"soa": 150,
		"probe_key": "j",
		"reference_key": "f",
		"probe_element": {},
		"reference_element": {},
		"fixation_time": 400,
		"fixation_mark_html": "<img class='toj-fixation-mark absolute-position' src='./images/fixmark.png'></img>",
		"data": {
			"probeLeft": false,
			"salient": false
		},
		"response_key": "f",
		"response": "reference",
		"response_correct": true,
		"measured_soa": 154.59999999802676,
		"rt": 418.85000000183936,
		"probeLeft": false,
		"salient": false,
		"trial_type": "toj",
		"trial_index": 139,
		"time_elapsed": 171138,
		"internal_node_id": "0.0-5.0-0.4-0.121"
	},
	{
		"type": "toj",
		"soa": -150,
		"probe_key": "f",
		"reference_key": "j",
		"probe_element": {},
		"reference_element": {},
		"fixation_time": 400,
		"fixation_mark_html": "<img class='toj-fixation-mark absolute-position' src='./images/fixmark.png'></img>",
		"data": {
			"probeLeft": true,
			"salient": false
		},
		"response_key": "f",
		"response": "probe",
		"response_correct": true,
		"measured_soa": -151.82499999718857,
		"rt": 495.0749999989057,
		"probeLeft": true,
		"salient": false,
		"trial_type": "toj",
		"trial_index": 140,
		"time_elapsed": 172191,
		"internal_node_id": "0.0-5.0-0.4-0.122"
	},
	{
		"type": "toj",
		"soa": -150,
		"probe_key": "f",
		"reference_key": "j",
		"probe_element": {},
		"reference_element": {},
		"fixation_time": 400,
		"fixation_mark_html": "<img class='toj-fixation-mark absolute-position' src='./images/fixmark.png'></img>",
		"data": {
			"probeLeft": true,
			"salient": true
		},
		"response_key": "f",
		"response": "probe",
		"response_correct": true,
		"measured_soa": -154.74499999982072,
		"rt": 540.644999997312,
		"probeLeft": true,
		"salient": true,
		"trial_type": "toj",
		"trial_index": 141,
		"time_elapsed": 173290,
		"internal_node_id": "0.0-5.0-0.4-0.123"
	},
	{
		"type": "toj",
		"soa": 50,
		"probe_key": "f",
		"reference_key": "j",
		"probe_element": {},
		"reference_element": {},
		"fixation_time": 400,
		"fixation_mark_html": "<img class='toj-fixation-mark absolute-position' src='./images/fixmark.png'></img>",
		"data": {
			"probeLeft": true,
			"salient": false
		},
		"response_key": "f",
		"response": "probe",
		"response_correct": false,
		"measured_soa": 51.869999999325955,
		"rt": 746.7749999996158,
		"probeLeft": true,
		"salient": false,
		"trial_type": "toj",
		"trial_index": 142,
		"time_elapsed": 174492,
		"internal_node_id": "0.0-5.0-0.4-0.124"
	},
	{
		"type": "toj",
		"soa": -50,
		"probe_key": "j",
		"reference_key": "f",
		"probe_element": {},
		"reference_element": {},
		"fixation_time": 400,
		"fixation_mark_html": "<img class='toj-fixation-mark absolute-position' src='./images/fixmark.png'></img>",
		"data": {
			"probeLeft": false,
			"salient": true
		},
		"response_key": "f",
		"response": "reference",
		"response_correct": false,
		"measured_soa": -51.1099999966973,
		"rt": 732.7199999999721,
		"probeLeft": false,
		"salient": true,
		"trial_type": "toj",
		"trial_index": 143,
		"time_elapsed": 175678,
		"internal_node_id": "0.0-5.0-0.4-0.125"
	},
	{
		"type": "toj",
		"soa": 0,
		"probe_key": "f",
		"reference_key": "j",
		"probe_element": {},
		"reference_element": {},
		"fixation_time": 400,
		"fixation_mark_html": "<img class='toj-fixation-mark absolute-position' src='./images/fixmark.png'></img>",
		"data": {
			"probeLeft": true,
			"salient": true
		},
		"response_key": "j",
		"response": "reference",
		"response_correct": true,
		"measured_soa": 0.09000000136438757,
		"rt": 551.660000000993,
		"probeLeft": true,
		"salient": true,
		"trial_type": "toj",
		"trial_index": 144,
		"time_elapsed": 176635,
		"internal_node_id": "0.0-5.0-0.4-0.126"
	},
	{
		"type": "toj",
		"soa": -100,
		"probe_key": "j",
		"reference_key": "f",
		"probe_element": {},
		"reference_element": {},
		"fixation_time": 400,
		"fixation_mark_html": "<img class='toj-fixation-mark absolute-position' src='./images/fixmark.png'></img>",
		"data": {
			"probeLeft": false,
			"salient": false
		},
		"response_key": "j",
		"response": "probe",
		"response_correct": true,
		"measured_soa": -101.69000000314554,
		"rt": 448.25000000128057,
		"probeLeft": false,
		"salient": false,
		"trial_type": "toj",
		"trial_index": 145,
		"time_elapsed": 177592,
		"internal_node_id": "0.0-5.0-0.4-0.127"
	},
	{
		"type": "toj",
		"soa": -100,
		"probe_key": "j",
		"reference_key": "f",
		"probe_element": {},
		"reference_element": {},
		"fixation_time": 400,
		"fixation_mark_html": "<img class='toj-fixation-mark absolute-position' src='./images/fixmark.png'></img>",
		"data": {
			"probeLeft": false,
			"salient": true
		},
		"response_key": "f",
		"response": "reference",
		"response_correct": false,
		"measured_soa": -101.00500000044121,
		"rt": 681.960000001709,
		"probeLeft": false,
		"salient": true,
		"trial_type": "toj",
		"trial_index": 146,
		"time_elapsed": 178778,
		"internal_node_id": "0.0-5.0-0.4-0.128"
	},
	{
		"type": "toj",
		"soa": 50,
		"probe_key": "j",
		"reference_key": "f",
		"probe_element": {},
		"reference_element": {},
		"fixation_time": 400,
		"fixation_mark_html": "<img class='toj-fixation-mark absolute-position' src='./images/fixmark.png'></img>",
		"data": {
			"probeLeft": false,
			"salient": true
		},
		"response_key": "j",
		"response": "probe",
		"response_correct": false,
		"measured_soa": 51.40499999833992,
		"rt": 574.6450000006007,
		"probeLeft": false,
		"salient": true,
		"trial_type": "toj",
		"trial_index": 147,
		"time_elapsed": 179811,
		"internal_node_id": "0.0-5.0-0.4-0.129"
	},
	{
		"type": "toj",
		"soa": 50,
		"probe_key": "j",
		"reference_key": "f",
		"probe_element": {},
		"reference_element": {},
		"fixation_time": 400,
		"fixation_mark_html": "<img class='toj-fixation-mark absolute-position' src='./images/fixmark.png'></img>",
		"data": {
			"probeLeft": false,
			"salient": false
		},
		"response_key": "f",
		"response": "reference",
		"response_correct": true,
		"measured_soa": 50.505000002885936,
		"rt": 548.915000003035,
		"probeLeft": false,
		"salient": false,
		"trial_type": "toj",
		"trial_index": 148,
		"time_elapsed": 180818,
		"internal_node_id": "0.0-5.0-0.4-0.130"
	},
	{
		"type": "toj",
		"soa": 0,
		"probe_key": "f",
		"reference_key": "j",
		"probe_element": {},
		"reference_element": {},
		"fixation_time": 400,
		"fixation_mark_html": "<img class='toj-fixation-mark absolute-position' src='./images/fixmark.png'></img>",
		"data": {
			"probeLeft": true,
			"salient": false
		},
		"response_key": "j",
		"response": "reference",
		"response_correct": true,
		"measured_soa": 0.08999999772640876,
		"rt": 687.8199999991921,
		"probeLeft": true,
		"salient": false,
		"trial_type": "toj",
		"trial_index": 149,
		"time_elapsed": 181909,
		"internal_node_id": "0.0-5.0-0.4-0.131"
	},
	{
		"type": "toj",
		"soa": 100,
		"probe_key": "j",
		"reference_key": "f",
		"probe_element": {},
		"reference_element": {},
		"fixation_time": 400,
		"fixation_mark_html": "<img class='toj-fixation-mark absolute-position' src='./images/fixmark.png'></img>",
		"data": {
			"probeLeft": false,
			"salient": true
		},
		"response_key": "j",
		"response": "probe",
		"response_correct": false,
		"measured_soa": 100.92500000246218,
		"rt": 668.1300000018382,
		"probeLeft": false,
		"salient": true,
		"trial_type": "toj",
		"trial_index": 150,
		"time_elapsed": 183083,
		"internal_node_id": "0.0-5.0-0.4-0.132"
	},
	{
		"type": "toj",
		"soa": -150,
		"probe_key": "j",
		"reference_key": "f",
		"probe_element": {},
		"reference_element": {},
		"fixation_time": 400,
		"fixation_mark_html": "<img class='toj-fixation-mark absolute-position' src='./images/fixmark.png'></img>",
		"data": {
			"probeLeft": false,
			"salient": true
		},
		"response_key": "j",
		"response": "probe",
		"response_correct": true,
		"measured_soa": -155.5999999982305,
		"rt": 677.6049999971292,
		"probeLeft": false,
		"salient": true,
		"trial_type": "toj",
		"trial_index": 151,
		"time_elapsed": 184321,
		"internal_node_id": "0.0-5.0-0.4-0.133"
	},
	{
		"type": "toj",
		"soa": 150,
		"probe_key": "j",
		"reference_key": "f",
		"probe_element": {},
		"reference_element": {},
		"fixation_time": 400,
		"fixation_mark_html": "<img class='toj-fixation-mark absolute-position' src='./images/fixmark.png'></img>",
		"data": {
			"probeLeft": false,
			"salient": true
		},
		"response_key": "f",
		"response": "reference",
		"response_correct": true,
		"measured_soa": 151.0549999984505,
		"rt": 402.9999999984284,
		"probeLeft": false,
		"salient": true,
		"trial_type": "toj",
		"trial_index": 152,
		"time_elapsed": 185281,
		"internal_node_id": "0.0-5.0-0.4-0.134"
	},
	{
		"type": "toj",
		"soa": 100,
		"probe_key": "f",
		"reference_key": "j",
		"probe_element": {},
		"reference_element": {},
		"fixation_time": 400,
		"fixation_mark_html": "<img class='toj-fixation-mark absolute-position' src='./images/fixmark.png'></img>",
		"data": {
			"probeLeft": true,
			"salient": true
		},
		"response_key": "j",
		"response": "reference",
		"response_correct": true,
		"measured_soa": 100.85999999864725,
		"rt": 552.9800000003888,
		"probeLeft": true,
		"salient": true,
		"trial_type": "toj",
		"trial_index": 153,
		"time_elapsed": 186340,
		"internal_node_id": "0.0-5.0-0.4-0.135"
	},
	{
		"type": "toj",
		"soa": -100,
		"probe_key": "f",
		"reference_key": "j",
		"probe_element": {},
		"reference_element": {},
		"fixation_time": 400,
		"fixation_mark_html": "<img class='toj-fixation-mark absolute-position' src='./images/fixmark.png'></img>",
		"data": {
			"probeLeft": true,
			"salient": true
		},
		"response_key": "f",
		"response": "probe",
		"response_correct": true,
		"measured_soa": -101.51500000210945,
		"rt": 347.72499999962747,
		"probeLeft": true,
		"salient": true,
		"trial_type": "toj",
		"trial_index": 154,
		"time_elapsed": 187194,
		"internal_node_id": "0.0-5.0-0.4-0.136"
	},
	{
		"type": "toj",
		"soa": 0,
		"probe_key": "j",
		"reference_key": "f",
		"probe_element": {},
		"reference_element": {},
		"fixation_time": 400,
		"fixation_mark_html": "<img class='toj-fixation-mark absolute-position' src='./images/fixmark.png'></img>",
		"data": {
			"probeLeft": false,
			"salient": false
		},
		"response_key": "f",
		"response": "reference",
		"response_correct": true,
		"measured_soa": 0.08000000161700882,
		"rt": 609.8200000014913,
		"probeLeft": false,
		"salient": false,
		"trial_type": "toj",
		"trial_index": 155,
		"time_elapsed": 188210,
		"internal_node_id": "0.0-5.0-0.4-0.137"
	},
	{
		"type": "toj",
		"soa": 100,
		"probe_key": "f",
		"reference_key": "j",
		"probe_element": {},
		"reference_element": {},
		"fixation_time": 400,
		"fixation_mark_html": "<img class='toj-fixation-mark absolute-position' src='./images/fixmark.png'></img>",
		"data": {
			"probeLeft": true,
			"salient": false
		},
		"response_key": "j",
		"response": "reference",
		"response_correct": true,
		"measured_soa": 101.08000000036554,
		"rt": 532.084999998915,
		"probeLeft": true,
		"salient": false,
		"trial_type": "toj",
		"trial_index": 156,
		"time_elapsed": 189250,
		"internal_node_id": "0.0-5.0-0.4-0.138"
	},
	{
		"type": "toj",
		"soa": 150,
		"probe_key": "f",
		"reference_key": "j",
		"probe_element": {},
		"reference_element": {},
		"fixation_time": 400,
		"fixation_mark_html": "<img class='toj-fixation-mark absolute-position' src='./images/fixmark.png'></img>",
		"data": {
			"probeLeft": true,
			"salient": false
		},
		"response_key": "j",
		"response": "reference",
		"response_correct": true,
		"measured_soa": 150.95999999903142,
		"rt": 703.9550000008603,
		"probeLeft": true,
		"salient": false,
		"trial_type": "toj",
		"trial_index": 157,
		"time_elapsed": 190512,
		"internal_node_id": "0.0-5.0-0.4-0.139"
	},
	{
		"rt": 2107,
		"stimulus": "<p>This part of the experiment is finished. Press any key to save the results!</p>",
		"key_press": 32,
		"trial_type": "html-keyboard-response",
		"trial_index": 158,
		"time_elapsed": 192620,
		"internal_node_id": "0.0-5.0-1.4"
	}
]