[{"type": "toj", "soa": 100, "probe_key": "f", "reference_key": "j", "probe_element": {}, "reference_element": {}, "fixation_time": 400, "fixation_mark_html": "<img class='toj-fixation-mark absolute-position' src='./images/fixmark.png'></img>", "data": {"probeLeft": true, "salient": false}, "response_key": "j", "response": "reference", "response_correct": true, "measured_soa": 101.32999997586012, "rt": 498.4850001055747, "probeLeft": true, "salient": false, "trial_type": "toj", "trial_index": 14, "time_elapsed": 41745, "internal_node_id": "0.0-5.0-0.0-0.0"}, {"type": "toj", "soa": 50, "probe_key": "j", "reference_key": "f", "probe_element": {}, "reference_element": {}, "fixation_time": 400, "fixation_mark_html": "<img class='toj-fixation-mark absolute-position' src='./images/fixmark.png'></img>", "data": {"probeLeft": false, "salient": false}, "response_key": "f", "response": "reference", "response_correct": true, "measured_soa": 51.38500011526048, "rt": 655.0149999093264, "probeLeft": false, "salient": false, "trial_type": "toj", "trial_index": 15, "time_elapsed": 42855, "internal_node_id": "0.0-5.0-0.0-0.1"}, {"type": "toj", "soa": 0, "probe_key": "j", "reference_key": "f", "probe_element": {}, "reference_element": {}, "fixation_time": 400, "fixation_mark_html": "<img class='toj-fixation-mark absolute-position' src='./images/fixmark.png'></img>", "data": {"probeLeft": false, "salient": false}, "response_key": "j", "response": "probe", "response_correct": true, "measured_soa": 0.11499994434416294, "rt": 759.1850000899285, "probeLeft": false, "salient": false, "trial_type": "toj", "trial_index": 16, "time_elapsed": 44017, "internal_node_id": "0.0-5.0-0.0-0.2"}, {"type": "toj", "soa": -100, "probe_key": "j", "reference_key": "f", "probe_element": {}, "reference_element": {}, "fixation_time": 400, "fixation_mark_html": "<img class='toj-fixation-mark absolute-position' src='./images/fixmark.png'></img>", "data": {"probeLeft": false, "salient": false}, "response_key": "j", "response": "probe", "response_correct": true, "measured_soa": -101.08499997295439, "rt": 573.8850000780076, "probeLeft": false, "salient": false, "trial_type": "toj", "trial_index": 17, "time_elapsed": 45098, "internal_node_id": "0.0-5.0-0.0-0.3"}, {"type": "toj", "soa": -50, "probe_key": "j", "reference_key": "f", "probe_element": {}, "reference_element": {}, "fixation_time": 400, "fixation_mark_html": "<img class='toj-fixation-mark absolute-position' src='./images/fixmark.png'></img>", "data": {"probeLeft": false, "salient": true}, "response_key": "j", "response": "probe", "response_correct": true, "measured_soa": -51.06500000692904, "rt": 670.0699999928474, "probeLeft": false, "salient": true, "trial_type": "toj", "trial_index": 18, "time_elapsed": 46223, "internal_node_id": "0.0-5.0-0.0-0.4"}, {"type": "toj", "soa": 150, "probe_key": "j", "reference_key": "f", "probe_element": {}, "reference_element": {}, "fixation_time": 400, "fixation_mark_html": "<img class='toj-fixation-mark absolute-position' src='./images/fixmark.png'></img>", "data": {"probeLeft": false, "salient": false}, "response_key": "f", "response": "reference", "response_correct": true, "measured_soa": 151.2349999975413, "rt": 424.4299998972565, "probeLeft": false, "salient": false, "trial_type": "toj", "trial_index": 19, "time_elapsed": 47202, "internal_node_id": "0.0-5.0-0.0-0.5"}, {"type": "toj", "soa": -100, "probe_key": "f", "reference_key": "j", "probe_element": {}, "reference_element": {}, "fixation_time": 400, "fixation_mark_html": "<img class='toj-fixation-mark absolute-position' src='./images/fixmark.png'></img>", "data": {"probeLeft": true, "salient": false}, "response_key": "j", "response": "reference", "response_correct": false, "measured_soa": -101.20999999344349, "rt": 828.0299999751151, "probeLeft": true, "salient": false, "trial_type": "toj", "trial_index": 20, "time_elapsed": 48535, "internal_node_id": "0.0-5.0-0.0-0.6"}, {"type": "toj", "soa": 100, "probe_key": "f", "reference_key": "j", "probe_element": {}, "reference_element": {}, "fixation_time": 400, "fixation_mark_html": "<img class='toj-fixation-mark absolute-position' src='./images/fixmark.png'></img>", "data": {"probeLeft": true, "salient": true}, "response_key": "j", "response": "reference", "response_correct": true, "measured_soa": 100.49500013701618, "rt": 1078.0499998945743, "probeLeft": true, "salient": true, "trial_type": "toj", "trial_index": 21, "time_elapsed": 50117, "internal_node_id": "0.0-5.0-0.0-0.7"}, {"type": "toj", "soa": -100, "probe_key": "j", "reference_key": "f", "probe_element": {}, "reference_element": {}, "fixation_time": 400, "fixation_mark_html": "<img class='toj-fixation-mark absolute-position' src='./images/fixmark.png'></img>", "data": {"probeLeft": false, "salient": true}, "response_key": "j", "response": "probe", "response_correct": true, "measured_soa": -101.3250001706183, "rt": 876.5400000847876, "probeLeft": false, "salient": true, "trial_type": "toj", "trial_index": 22, "time_elapsed": 51498, "internal_node_id": "0.0-5.0-0.0-0.8"}, {"type": "toj", "soa": -50, "probe_key": "j", "reference_key": "f", "probe_element": {}, "reference_element": {}, "fixation_time": 400, "fixation_mark_html": "<img class='toj-fixation-mark absolute-position' src='./images/fixmark.png'></img>", "data": {"probeLeft": false, "salient": false}, "response_key": "j", "response": "probe", "response_correct": true, "measured_soa": -51.20999994687736, "rt": 816.0149999894202, "probeLeft": false, "salient": false, "trial_type": "toj", "trial_index": 23, "time_elapsed": 52769, "internal_node_id": "0.0-5.0-0.0-0.9"}, {"type": "toj", "soa": 0, "probe_key": "f", "reference_key": "j", "probe_element": {}, "reference_element": {}, "fixation_time": 400, "fixation_mark_html": "<img class='toj-fixation-mark absolute-position' src='./images/fixmark.png'></img>", "data": {"probeLeft": true, "salient": false}, "response_key": "j", "response": "reference", "response_correct": true, "measured_soa": 0.11999998241662979, "rt": 913.9999998733401, "probeLeft": true, "salient": false, "trial_type": "toj", "trial_index": 24, "time_elapsed": 54087, "internal_node_id": "0.0-5.0-0.0-0.10"}, {"type": "toj", "soa": 50, "probe_key": "j", "reference_key": "f", "probe_element": {}, "reference_element": {}, "fixation_time": 400, "fixation_mark_html": "<img class='toj-fixation-mark absolute-position' src='./images/fixmark.png'></img>", "data": {"probeLeft": false, "salient": true}, "response_key": "j", "response": "probe", "response_correct": false, "measured_soa": 52.33500013127923, "rt": 637.8099999856204, "probeLeft": false, "salient": true, "trial_type": "toj", "trial_index": 25, "time_elapsed": 55180, "internal_node_id": "0.0-5.0-0.0-0.11"}, {"type": "toj", "soa": 150, "probe_key": "f", "reference_key": "j", "probe_element": {}, "reference_element": {}, "fixation_time": 400, "fixation_mark_html": "<img class='toj-fixation-mark absolute-position' src='./images/fixmark.png'></img>", "data": {"probeLeft": true, "salient": true}, "response_key": "j", "response": "reference", "response_correct": true, "measured_soa": 151.39499981887639, "rt": 443.13999987207353, "probeLeft": true, "salient": true, "trial_type": "toj", "trial_index": 26, "time_elapsed": 56178, "internal_node_id": "0.0-5.0-0.0-0.12"}, {"type": "toj", "soa": -150, "probe_key": "j", "reference_key": "f", "probe_element": {}, "reference_element": {}, "fixation_time": 400, "fixation_mark_html": "<img class='toj-fixation-mark absolute-position' src='./images/fixmark.png'></img>", "data": {"probeLeft": false, "salient": false}, "response_key": "j", "response": "probe", "response_correct": true, "measured_soa": -151.09500009566545, "rt": 604.5350001659244, "probeLeft": false, "salient": false, "trial_type": "toj", "trial_index": 27, "time_elapsed": 57339, "internal_node_id": "0.0-5.0-0.0-0.13"}, {"type": "toj", "soa": 50, "probe_key": "f", "reference_key": "j", "probe_element": {}, "reference_element": {}, "fixation_time": 400, "fixation_mark_html": "<img class='toj-fixation-mark absolute-position' src='./images/fixmark.png'></img>", "data": {"probeLeft": true, "salient": false}, "response_key": "j", "response": "reference", "response_correct": true, "measured_soa": 51.654999842867255, "rt": 887.0649999007583, "probeLeft": true, "salient": false, "trial_type": "toj", "trial_index": 28, "time_elapsed": 58681, "internal_node_id": "0.0-5.0-0.0-0.14"}, {"type": "toj", "soa": 0, "probe_key": "f", "reference_key": "j", "probe_element": {}, "reference_element": {}, "fixation_time": 400, "fixation_mark_html": "<img class='toj-fixation-mark absolute-position' src='./images/fixmark.png'></img>", "data": {"probeLeft": true, "salient": true}, "response_key": "j", "response": "reference", "response_correct": true, "measured_soa": 0.08999998681247234, "rt": 1096.5650000143796, "probeLeft": true, "salient": true, "trial_type": "toj", "trial_index": 29, "time_elapsed": 60181, "internal_node_id": "0.0-5.0-0.0-0.15"}, {"type": "toj", "soa": -100, "probe_key": "f", "reference_key": "j", "probe_element": {}, "reference_element": {}, "fixation_time": 400, "fixation_mark_html": "<img class='toj-fixation-mark absolute-position' src='./images/fixmark.png'></img>", "data": {"probeLeft": true, "salient": true}, "response_key": "f", "response": "probe", "response_correct": true, "measured_soa": -101.7450001090765, "rt": 1165.135000133887, "probeLeft": true, "salient": true, "trial_type": "toj", "trial_index": 30, "time_elapsed": 61851, "internal_node_id": "0.0-5.0-0.0-0.16"}, {"type": "toj", "soa": 50, "probe_key": "f", "reference_key": "j", "probe_element": {}, "reference_element": {}, "fixation_time": 400, "fixation_mark_html": "<img class='toj-fixation-mark absolute-position' src='./images/fixmark.png'></img>", "data": {"probeLeft": true, "salient": true}, "response_key": "j", "response": "reference", "response_correct": true, "measured_soa": 50.964999943971634, "rt": 592.9700001142919, "probeLeft": true, "salient": true, "trial_type": "toj", "trial_index": 31, "time_elapsed": 62899, "internal_node_id": "0.0-5.0-0.0-0.17"}, {"type": "toj", "soa": -50, "probe_key": "f", "reference_key": "j", "probe_element": {}, "reference_element": {}, "fixation_time": 400, "fixation_mark_html": "<img class='toj-fixation-mark absolute-position' src='./images/fixmark.png'></img>", "data": {"probeLeft": true, "salient": false}, "response_key": "f", "response": "probe", "response_correct": true, "measured_soa": -50.50499993376434, "rt": 385.17999998293817, "probeLeft": true, "salient": false, "trial_type": "toj", "trial_index": 32, "time_elapsed": 63738, "internal_node_id": "0.0-5.0-0.0-0.18"}, {"type": "toj", "soa": -150, "probe_key": "f", "reference_key": "j", "probe_element": {}, "reference_element": {}, "fixation_time": 400, "fixation_mark_html": "<img class='toj-fixation-mark absolute-position' src='./images/fixmark.png'></img>", "data": {"probeLeft": true, "salient": false}, "response_key": "f", "response": "probe", "response_correct": true, "measured_soa": -152.04000007361174, "rt": 450.48499992117286, "probeLeft": true, "salient": false, "trial_type": "toj", "trial_index": 33, "time_elapsed": 64745, "internal_node_id": "0.0-5.0-0.0-0.19"}, {"type": "toj", "soa": 150, "probe_key": "j", "reference_key": "f", "probe_element": {}, "reference_element": {}, "fixation_time": 400, "fixation_mark_html": "<img class='toj-fixation-mark absolute-position' src='./images/fixmark.png'></img>", "data": {"probeLeft": false, "salient": true}, "response_key": "j", "response": "probe", "response_correct": false, "measured_soa": 150.95499996095896, "rt": 500.0899999868125, "probeLeft": false, "salient": true, "trial_type": "toj", "trial_index": 34, "time_elapsed": 65800, "internal_node_id": "0.0-5.0-0.0-0.20"}, {"type": "toj", "soa": 100, "probe_key": "j", "reference_key": "f", "probe_element": {}, "reference_element": {}, "fixation_time": 400, "fixation_mark_html": "<img class='toj-fixation-mark absolute-position' src='./images/fixmark.png'></img>", "data": {"probeLeft": false, "salient": false}, "response_key": "f", "response": "reference", "response_correct": true, "measured_soa": 100.950000109151, "rt": 1054.604999953881, "probeLeft": false, "salient": false, "trial_type": "toj", "trial_index": 35, "time_elapsed": 67359, "internal_node_id": "0.0-5.0-0.0-0.21"}, {"type": "toj", "soa": -150, "probe_key": "j", "reference_key": "f", "probe_element": {}, "reference_element": {}, "fixation_time": 400, "fixation_mark_html": "<img class='toj-fixation-mark absolute-position' src='./images/fixmark.png'></img>", "data": {"probeLeft": false, "salient": true}, "response_key": "j", "response": "probe", "response_correct": true, "measured_soa": -150.8849998936057, "rt": 2042.009999975562, "probeLeft": false, "salient": true, "trial_type": "toj", "trial_index": 36, "time_elapsed": 69955, "internal_node_id": "0.0-5.0-0.0-0.22"}, {"type": "toj", "soa": -50, "probe_key": "f", "reference_key": "j", "probe_element": {}, "reference_element": {}, "fixation_time": 400, "fixation_mark_html": "<img class='toj-fixation-mark absolute-position' src='./images/fixmark.png'></img>", "data": {"probeLeft": true, "salient": true}, "response_key": "f", "response": "probe", "response_correct": true, "measured_soa": -51.5149999409914, "rt": 455.77499992214143, "probeLeft": true, "salient": true, "trial_type": "toj", "trial_index": 37, "time_elapsed": 70866, "internal_node_id": "0.0-5.0-0.0-0.23"}, {"type": "toj", "soa": 100, "probe_key": "j", "reference_key": "f", "probe_element": {}, "reference_element": {}, "fixation_time": 400, "fixation_mark_html": "<img class='toj-fixation-mark absolute-position' src='./images/fixmark.png'></img>", "data": {"probeLeft": false, "salient": true}, "response_key": "f", "response": "reference", "response_correct": true, "measured_soa": 100.73000006377697, "rt": 589.549999916926, "probeLeft": false, "salient": true, "trial_type": "toj", "trial_index": 38, "time_elapsed": 71960, "internal_node_id": "0.0-5.0-0.0-0.24"}, {"type": "toj", "soa": 150, "probe_key": "f", "reference_key": "j", "probe_element": {}, "reference_element": {}, "fixation_time": 400, "fixation_mark_html": "<img class='toj-fixation-mark absolute-position' src='./images/fixmark.png'></img>", "data": {"probeLeft": true, "salient": false}, "response_key": "j", "response": "reference", "response_correct": true, "measured_soa": 151.35500021278858, "rt": 651.4099999330938, "probeLeft": true, "salient": false, "trial_type": "toj", "trial_index": 39, "time_elapsed": 73167, "internal_node_id": "0.0-5.0-0.0-0.25"}, {"type": "toj", "soa": 0, "probe_key": "j", "reference_key": "f", "probe_element": {}, "reference_element": {}, "fixation_time": 400, "fixation_mark_html": "<img class='toj-fixation-mark absolute-position' src='./images/fixmark.png'></img>", "data": {"probeLeft": false, "salient": true}, "response_key": "f", "response": "reference", "response_correct": true, "measured_soa": 0.0950000248849392, "rt": 977.8549999464303, "probeLeft": false, "salient": true, "trial_type": "toj", "trial_index": 40, "time_elapsed": 74547, "internal_node_id": "0.0-5.0-0.0-0.26"}, {"type": "toj", "soa": -150, "probe_key": "f", "reference_key": "j", "probe_element": {}, "reference_element": {}, "fixation_time": 400, "fixation_mark_html": "<img class='toj-fixation-mark absolute-position' src='./images/fixmark.png'></img>", "data": {"probeLeft": true, "salient": true}, "response_key": "f", "response": "probe", "response_correct": true, "measured_soa": -150.8050002157688, "rt": 1243.290000129491, "probeLeft": true, "salient": true, "trial_type": "toj", "trial_index": 41, "time_elapsed": 76346, "internal_node_id": "0.0-5.0-0.0-0.27"}, {"rt": 2343, "stimulus": "<p>You finished block 1 of 5.<p/><p>Press any key to continue.</p>", "key_press": 74, "trial_type": "html-keyboard-response", "trial_index": 42, "time_elapsed": 78690, "internal_node_id": "0.0-5.0-1.0"}, {"type": "toj", "soa": 100, "probe_key": "j", "reference_key": "f", "probe_element": {}, "reference_element": {}, "fixation_time": 400, "fixation_mark_html": "<img class='toj-fixation-mark absolute-position' src='./images/fixmark.png'></img>", "data": {"probeLeft": false, "salient": false}, "response_key": "f", "response": "reference", "response_correct": true, "measured_soa": 101.38999996706843, "rt": 4464.259999804199, "probeLeft": false, "salient": false, "trial_type": "toj", "trial_index": 43, "time_elapsed": 83661, "internal_node_id": "0.0-5.0-0.1-0.28"}, {"type": "toj", "soa": -150, "probe_key": "j", "reference_key": "f", "probe_element": {}, "reference_element": {}, "fixation_time": 400, "fixation_mark_html": "<img class='toj-fixation-mark absolute-position' src='./images/fixmark.png'></img>", "data": {"probeLeft": false, "salient": false}, "response_key": "j", "response": "probe", "response_correct": true, "measured_soa": -151.09999990090728, "rt": 454.89499997347593, "probeLeft": false, "salient": false, "trial_type": "toj", "trial_index": 44, "time_elapsed": 84671, "internal_node_id": "0.0-5.0-0.1-0.29"}, {"type": "toj", "soa": -100, "probe_key": "f", "reference_key": "j", "probe_element": {}, "reference_element": {}, "fixation_time": 400, "fixation_mark_html": "<img class='toj-fixation-mark absolute-position' src='./images/fixmark.png'></img>", "data": {"probeLeft": true, "salient": false}, "response_key": "f", "response": "probe", "response_correct": true, "measured_soa": -101.06500005349517, "rt": 549.6199999470264, "probeLeft": true, "salient": false, "trial_type": "toj", "trial_index": 45, "time_elapsed": 85724, "internal_node_id": "0.0-5.0-0.1-0.30"}, {"type": "toj", "soa": 100, "probe_key": "f", "reference_key": "j", "probe_element": {}, "reference_element": {}, "fixation_time": 400, "fixation_mark_html": "<img class='toj-fixation-mark absolute-position' src='./images/fixmark.png'></img>", "data": {"probeLeft": true, "salient": false}, "response_key": "f", "response": "probe", "response_correct": false, "measured_soa": 101.20999999344349, "rt": 1227.0949999801815, "probeLeft": true, "salient": false, "trial_type": "toj", "trial_index": 46, "time_elapsed": 87457, "internal_node_id": "0.0-5.0-0.1-0.31"}, {"type": "toj", "soa": -100, "probe_key": "f", "reference_key": "j", "probe_element": {}, "reference_element": {}, "fixation_time": 400, "fixation_mark_html": "<img class='toj-fixation-mark absolute-position' src='./images/fixmark.png'></img>", "data": {"probeLeft": true, "salient": true}, "response_key": "f", "response": "probe", "response_correct": true, "measured_soa": -100.70000006817281, "rt": 589.3400001805276, "probeLeft": true, "salient": true, "trial_type": "toj", "trial_index": 47, "time_elapsed": 88550, "internal_node_id": "0.0-5.0-0.1-0.32"}, {"type": "toj", "soa": -50, "probe_key": "j", "reference_key": "f", "probe_element": {}, "reference_element": {}, "fixation_time": 400, "fixation_mark_html": "<img class='toj-fixation-mark absolute-position' src='./images/fixmark.png'></img>", "data": {"probeLeft": false, "salient": true}, "response_key": "f", "response": "reference", "response_correct": false, "measured_soa": -50.844999961555004, "rt": 621.904999949038, "probeLeft": false, "salient": true, "trial_type": "toj", "trial_index": 48, "time_elapsed": 89626, "internal_node_id": "0.0-5.0-0.1-0.33"}, {"type": "toj", "soa": 0, "probe_key": "f", "reference_key": "j", "probe_element": {}, "reference_element": {}, "fixation_time": 400, "fixation_mark_html": "<img class='toj-fixation-mark absolute-position' src='./images/fixmark.png'></img>", "data": {"probeLeft": true, "salient": false}, "response_key": "j", "response": "reference", "response_correct": true, "measured_soa": 0.11999998241662979, "rt": 1030.6549998931587, "probeLeft": true, "salient": false, "trial_type": "toj", "trial_index": 49, "time_elapsed": 91061, "internal_node_id": "0.0-5.0-0.1-0.34"}, {"type": "toj", "soa": 150, "probe_key": "j", "reference_key": "f", "probe_element": {}, "reference_element": {}, "fixation_time": 400, "fixation_mark_html": "<img class='toj-fixation-mark absolute-position' src='./images/fixmark.png'></img>", "data": {"probeLeft": false, "salient": true}, "response_key": "f", "response": "reference", "response_correct": true, "measured_soa": 150.3800000064075, "rt": 480.1799999549985, "probeLeft": false, "salient": true, "trial_type": "toj", "trial_index": 50, "time_elapsed": 92095, "internal_node_id": "0.0-5.0-0.1-0.35"}, {"type": "toj", "soa": -50, "probe_key": "f", "reference_key": "j", "probe_element": {}, "reference_element": {}, "fixation_time": 400, "fixation_mark_html": "<img class='toj-fixation-mark absolute-position' src='./images/fixmark.png'></img>", "data": {"probeLeft": true, "salient": false}, "response_key": "f", "response": "probe", "response_correct": true, "measured_soa": -51.89000000245869, "rt": 837.390000000596, "probeLeft": true, "salient": false, "trial_type": "toj", "trial_index": 51, "time_elapsed": 93387, "internal_node_id": "0.0-5.0-0.1-0.36"}, {"type": "toj", "soa": -50, "probe_key": "f", "reference_key": "j", "probe_element": {}, "reference_element": {}, "fixation_time": 400, "fixation_mark_html": "<img class='toj-fixation-mark absolute-position' src='./images/fixmark.png'></img>", "data": {"probeLeft": true, "salient": true}, "response_key": "f", "response": "probe", "response_correct": true, "measured_soa": -51.549999974668026, "rt": 672.2099999897182, "probeLeft": true, "salient": true, "trial_type": "toj", "trial_index": 52, "time_elapsed": 94514, "internal_node_id": "0.0-5.0-0.1-0.37"}, {"type": "toj", "soa": 50, "probe_key": "j", "reference_key": "f", "probe_element": {}, "reference_element": {}, "fixation_time": 400, "fixation_mark_html": "<img class='toj-fixation-mark absolute-position' src='./images/fixmark.png'></img>", "data": {"probeLeft": false, "salient": true}, "response_key": "f", "response": "reference", "response_correct": true, "measured_soa": 51.134999841451645, "rt": 629.3649999424815, "probeLeft": false, "salient": true, "trial_type": "toj", "trial_index": 53, "time_elapsed": 95598, "internal_node_id": "0.0-5.0-0.1-0.38"}, {"type": "toj", "soa": 150, "probe_key": "f", "reference_key": "j", "probe_element": {}, "reference_element": {}, "fixation_time": 400, "fixation_mark_html": "<img class='toj-fixation-mark absolute-position' src='./images/fixmark.png'></img>", "data": {"probeLeft": true, "salient": false}, "response_key": "j", "response": "reference", "response_correct": true, "measured_soa": 151.59000013954937, "rt": 2860.375000163913, "probeLeft": true, "salient": false, "trial_type": "toj", "trial_index": 54, "time_elapsed": 99013, "internal_node_id": "0.0-5.0-0.1-0.39"}, {"type": "toj", "soa": 0, "probe_key": "j", "reference_key": "f", "probe_element": {}, "reference_element": {}, "fixation_time": 400, "fixation_mark_html": "<img class='toj-fixation-mark absolute-position' src='./images/fixmark.png'></img>", "data": {"probeLeft": false, "salient": false}, "response_key": "f", "response": "reference", "response_correct": true, "measured_soa": 0.08999998681247234, "rt": 678.0350001063198, "probeLeft": false, "salient": false, "trial_type": "toj", "trial_index": 55, "time_elapsed": 100096, "internal_node_id": "0.0-5.0-0.1-0.40"}, {"type": "toj", "soa": 100, "probe_key": "j", "reference_key": "f", "probe_element": {}, "reference_element": {}, "fixation_time": 400, "fixation_mark_html": "<img class='toj-fixation-mark absolute-position' src='./images/fixmark.png'></img>", "data": {"probeLeft": false, "salient": true}, "response_key": "f", "response": "reference", "response_correct": true, "measured_soa": 100.88000004179776, "rt": 1508.780000032857, "probeLeft": false, "salient": true, "trial_type": "toj", "trial_index": 56, "time_elapsed": 102108, "internal_node_id": "0.0-5.0-0.1-0.41"}, {"type": "toj", "soa": 150, "probe_key": "j", "reference_key": "f", "probe_element": {}, "reference_element": {}, "fixation_time": 400, "fixation_mark_html": "<img class='toj-fixation-mark absolute-position' src='./images/fixmark.png'></img>", "data": {"probeLeft": false, "salient": false}, "response_key": "f", "response": "reference", "response_correct": true, "measured_soa": 150.41500004008412, "rt": 1098.160000052303, "probeLeft": false, "salient": false, "trial_type": "toj", "trial_index": 57, "time_elapsed": 103761, "internal_node_id": "0.0-5.0-0.1-0.42"}, {"type": "toj", "soa": -150, "probe_key": "j", "reference_key": "f", "probe_element": {}, "reference_element": {}, "fixation_time": 400, "fixation_mark_html": "<img class='toj-fixation-mark absolute-position' src='./images/fixmark.png'></img>", "data": {"probeLeft": false, "salient": true}, "response_key": "j", "response": "probe", "response_correct": true, "measured_soa": -150.69499984383583, "rt": 435.9850001055747, "probeLeft": false, "salient": true, "trial_type": "toj", "trial_index": 58, "time_elapsed": 104750, "internal_node_id": "0.0-5.0-0.1-0.43"}, {"type": "toj", "soa": 0, "probe_key": "f", "reference_key": "j", "probe_element": {}, "reference_element": {}, "fixation_time": 400, "fixation_mark_html": "<img class='toj-fixation-mark absolute-position' src='./images/fixmark.png'></img>", "data": {"probeLeft": true, "salient": true}, "response_key": "j", "response": "reference", "response_correct": true, "measured_soa": 0.0849999487400055, "rt": 989.049999974668, "probeLeft": true, "salient": true, "trial_type": "toj", "trial_index": 59, "time_elapsed": 106143, "internal_node_id": "0.0-5.0-0.1-0.44"}, {"type": "toj", "soa": -100, "probe_key": "j", "reference_key": "f", "probe_element": {}, "reference_element": {}, "fixation_time": 400, "fixation_mark_html": "<img class='toj-fixation-mark absolute-position' src='./images/fixmark.png'></img>", "data": {"probeLeft": false, "salient": true}, "response_key": "j", "response": "probe", "response_correct": true, "measured_soa": -101.03500005789101, "rt": 1222.275000065565, "probeLeft": false, "salient": true, "trial_type": "toj", "trial_index": 60, "time_elapsed": 107870, "internal_node_id": "0.0-5.0-0.1-0.45"}, {"type": "toj", "soa": -50, "probe_key": "j", "reference_key": "f", "probe_element": {}, "reference_element": {}, "fixation_time": 400, "fixation_mark_html": "<img class='toj-fixation-mark absolute-position' src='./images/fixmark.png'></img>", "data": {"probeLeft": false, "salient": false}, "response_key": "j", "response": "probe", "response_correct": true, "measured_soa": -50.9549998678267, "rt": 767.9400001652539, "probeLeft": false, "salient": false, "trial_type": "toj", "trial_index": 61, "time_elapsed": 109092, "internal_node_id": "0.0-5.0-0.1-0.46"}, {"type": "toj", "soa": 50, "probe_key": "f", "reference_key": "j", "probe_element": {}, "reference_element": {}, "fixation_time": 400, "fixation_mark_html": "<img class='toj-fixation-mark absolute-position' src='./images/fixmark.png'></img>", "data": {"probeLeft": true, "salient": false}, "response_key": "j", "response": "reference", "response_correct": true, "measured_soa": 50.494999857619405, "rt": 589.7549998480827, "probeLeft": true, "salient": false, "trial_type": "toj", "trial_index": 62, "time_elapsed": 110136, "internal_node_id": "0.0-5.0-0.1-0.47"}, {"type": "toj", "soa": 0, "probe_key": "j", "reference_key": "f", "probe_element": {}, "reference_element": {}, "fixation_time": 400, "fixation_mark_html": "<img class='toj-fixation-mark absolute-position' src='./images/fixmark.png'></img>", "data": {"probeLeft": false, "salient": true}, "response_key": "j", "response": "probe", "response_correct": true, "measured_soa": 0.0950000248849392, "rt": 1110.3450001683086, "probeLeft": false, "salient": true, "trial_type": "toj", "trial_index": 63, "time_elapsed": 111649, "internal_node_id": "0.0-5.0-0.1-0.48"}, {"type": "toj", "soa": 50, "probe_key": "j", "reference_key": "f", "probe_element": {}, "reference_element": {}, "fixation_time": 400, "fixation_mark_html": "<img class='toj-fixation-mark absolute-position' src='./images/fixmark.png'></img>", "data": {"probeLeft": false, "salient": false}, "response_key": "j", "response": "probe", "response_correct": false, "measured_soa": 51.60000012256205, "rt": 2068.154999986291, "probeLeft": false, "salient": false, "trial_type": "toj", "trial_index": 64, "time_elapsed": 114173, "internal_node_id": "0.0-5.0-0.1-0.49"}, {"type": "toj", "soa": 100, "probe_key": "f", "reference_key": "j", "probe_element": {}, "reference_element": {}, "fixation_time": 400, "fixation_mark_html": "<img class='toj-fixation-mark absolute-position' src='./images/fixmark.png'></img>", "data": {"probeLeft": true, "salient": true}, "response_key": "j", "response": "reference", "response_correct": true, "measured_soa": 100.6400000769645, "rt": 647.7799999993294, "probeLeft": true, "salient": true, "trial_type": "toj", "trial_index": 65, "time_elapsed": 115327, "internal_node_id": "0.0-5.0-0.1-0.50"}, {"type": "toj", "soa": 50, "probe_key": "f", "reference_key": "j", "probe_element": {}, "reference_element": {}, "fixation_time": 400, "fixation_mark_html": "<img class='toj-fixation-mark absolute-position' src='./images/fixmark.png'></img>", "data": {"probeLeft": true, "salient": true}, "response_key": "j", "response": "reference", "response_correct": true, "measured_soa": 50.43000006116927, "rt": 2106.124999932945, "probeLeft": true, "salient": true, "trial_type": "toj", "trial_index": 66, "time_elapsed": 117891, "internal_node_id": "0.0-5.0-0.1-0.51"}, {"type": "toj", "soa": -100, "probe_key": "j", "reference_key": "f", "probe_element": {}, "reference_element": {}, "fixation_time": 400, "fixation_mark_html": "<img class='toj-fixation-mark absolute-position' src='./images/fixmark.png'></img>", "data": {"probeLeft": false, "salient": false}, "response_key": "j", "response": "probe", "response_correct": true, "measured_soa": -100.66500003449619, "rt": 792.9149998817593, "probeLeft": false, "salient": false, "trial_type": "toj", "trial_index": 67, "time_elapsed": 119189, "internal_node_id": "0.0-5.0-0.1-0.52"}, {"type": "toj", "soa": 150, "probe_key": "f", "reference_key": "j", "probe_element": {}, "reference_element": {}, "fixation_time": 400, "fixation_mark_html": "<img class='toj-fixation-mark absolute-position' src='./images/fixmark.png'></img>", "data": {"probeLeft": true, "salient": true}, "response_key": "j", "response": "reference", "response_correct": true, "measured_soa": 151.93499997258186, "rt": 528.2600000500679, "probeLeft": true, "salient": true, "trial_type": "toj", "trial_index": 68, "time_elapsed": 120273, "internal_node_id": "0.0-5.0-0.1-0.53"}, {"type": "toj", "soa": -150, "probe_key": "f", "reference_key": "j", "probe_element": {}, "reference_element": {}, "fixation_time": 400, "fixation_mark_html": "<img class='toj-fixation-mark absolute-position' src='./images/fixmark.png'></img>", "data": {"probeLeft": true, "salient": false}, "response_key": "j", "response": "reference", "response_correct": false, "measured_soa": -151.0749999433756, "rt": 538.5300000198185, "probeLeft": true, "salient": false, "trial_type": "toj", "trial_index": 69, "time_elapsed": 121369, "internal_node_id": "0.0-5.0-0.1-0.54"}, {"type": "toj", "soa": -150, "probe_key": "f", "reference_key": "j", "probe_element": {}, "reference_element": {}, "fixation_time": 400, "fixation_mark_html": "<img class='toj-fixation-mark absolute-position' src='./images/fixmark.png'></img>", "data": {"probeLeft": true, "salient": true}, "response_key": "f", "response": "probe", "response_correct": true, "measured_soa": -151.67500008828938, "rt": 770.1349998824298, "probeLeft": true, "salient": true, "trial_type": "toj", "trial_index": 70, "time_elapsed": 122693, "internal_node_id": "0.0-5.0-0.1-0.55"}, {"rt": 6045, "stimulus": "<p>You finished block 2 of 5.<p/><p>Press any key to continue.</p>", "key_press": 70, "trial_type": "html-keyboard-response", "trial_index": 71, "time_elapsed": 128739, "internal_node_id": "0.0-5.0-1.1"}, {"type": "toj", "soa": -50, "probe_key": "j", "reference_key": "f", "probe_element": {}, "reference_element": {}, "fixation_time": 400, "fixation_mark_html": "<img class='toj-fixation-mark absolute-position' src='./images/fixmark.png'></img>", "data": {"probeLeft": false, "salient": true}, "response_key": "j", "response": "probe", "response_correct": true, "measured_soa": -52.14499984867871, "rt": 483.49000001326203, "probeLeft": false, "salient": true, "trial_type": "toj", "trial_index": 72, "time_elapsed": 129679, "internal_node_id": "0.0-5.0-0.2-0.56"}, {"type": "toj", "soa": 50, "probe_key": "f", "reference_key": "j", "probe_element": {}, "reference_element": {}, "fixation_time": 400, "fixation_mark_html": "<img class='toj-fixation-mark absolute-position' src='./images/fixmark.png'></img>", "data": {"probeLeft": true, "salient": true}, "response_key": "f", "response": "probe", "response_correct": false, "measured_soa": 50.4099999088794, "rt": 801.4200001489371, "probeLeft": true, "salient": true, "trial_type": "toj", "trial_index": 73, "time_elapsed": 130935, "internal_node_id": "0.0-5.0-0.2-0.57"}, {"type": "toj", "soa": 50, "probe_key": "j", "reference_key": "f", "probe_element": {}, "reference_element": {}, "fixation_time": 400, "fixation_mark_html": "<img class='toj-fixation-mark absolute-position' src='./images/fixmark.png'></img>", "data": {"probeLeft": false, "salient": true}, "response_key": "f", "response": "reference", "response_correct": true, "measured_soa": 51.19000002741814, "rt": 595.8800001535565, "probeLeft": false, "salient": true, "trial_type": "toj", "trial_index": 74, "time_elapsed": 131986, "internal_node_id": "0.0-5.0-0.2-0.58"}, {"type": "toj", "soa": -150, "probe_key": "j", "reference_key": "f", "probe_element": {}, "reference_element": {}, "fixation_time": 400, "fixation_mark_html": "<img class='toj-fixation-mark absolute-position' src='./images/fixmark.png'></img>", "data": {"probeLeft": false, "salient": true}, "response_key": "j", "response": "probe", "response_correct": true, "measured_soa": -151.19999996386468, "rt": 440.6300000846386, "probeLeft": false, "salient": true, "trial_type": "toj", "trial_index": 75, "time_elapsed": 132982, "internal_node_id": "0.0-5.0-0.2-0.59"}, {"type": "toj", "soa": 150, "probe_key": "f", "reference_key": "j", "probe_element": {}, "reference_element": {}, "fixation_time": 400, "fixation_mark_html": "<img class='toj-fixation-mark absolute-position' src='./images/fixmark.png'></img>", "data": {"probeLeft": true, "salient": true}, "response_key": "j", "response": "reference", "response_correct": true, "measured_soa": 151.94000001065433, "rt": 681.7249997984618, "probeLeft": true, "salient": true, "trial_type": "toj", "trial_index": 76, "time_elapsed": 134218, "internal_node_id": "0.0-5.0-0.2-0.60"}, {"type": "toj", "soa": -150, "probe_key": "j", "reference_key": "f", "probe_element": {}, "reference_element": {}, "fixation_time": 400, "fixation_mark_html": "<img class='toj-fixation-mark absolute-position' src='./images/fixmark.png'></img>", "data": {"probeLeft": false, "salient": false}, "response_key": "j", "response": "probe", "response_correct": true, "measured_soa": -151.5099999960512, "rt": 747.9900000616908, "probeLeft": false, "salient": false, "trial_type": "toj", "trial_index": 77, "time_elapsed": 135520, "internal_node_id": "0.0-5.0-0.2-0.61"}, {"type": "toj", "soa": -100, "probe_key": "f", "reference_key": "j", "probe_element": {}, "reference_element": {}, "fixation_time": 400, "fixation_mark_html": "<img class='toj-fixation-mark absolute-position' src='./images/fixmark.png'></img>", "data": {"probeLeft": true, "salient": true}, "response_key": "f", "response": "probe", "response_correct": true, "measured_soa": -100.6400000769645, "rt": 746.4799999725074, "probeLeft": true, "salient": true, "trial_type": "toj", "trial_index": 78, "time_elapsed": 136770, "internal_node_id": "0.0-5.0-0.2-0.62"}, {"type": "toj", "soa": 100, "probe_key": "j", "reference_key": "f", "probe_element": {}, "reference_element": {}, "fixation_time": 400, "fixation_mark_html": "<img class='toj-fixation-mark absolute-position' src='./images/fixmark.png'></img>", "data": {"probeLeft": false, "salient": false}, "response_key": "f", "response": "reference", "response_correct": true, "measured_soa": 101.8149999435991, "rt": 819.6250000037253, "probeLeft": false, "salient": false, "trial_type": "toj", "trial_index": 79, "time_elapsed": 138095, "internal_node_id": "0.0-5.0-0.2-0.63"}, {"type": "toj", "soa": 150, "probe_key": "f", "reference_key": "j", "probe_element": {}, "reference_element": {}, "fixation_time": 400, "fixation_mark_html": "<img class='toj-fixation-mark absolute-position' src='./images/fixmark.png'></img>", "data": {"probeLeft": true, "salient": false}, "response_key": "j", "response": "reference", "response_correct": true, "measured_soa": 151.91000001505017, "rt": 758.2499999552965, "probeLeft": true, "salient": false, "trial_type": "toj", "trial_index": 80, "time_elapsed": 139408, "internal_node_id": "0.0-5.0-0.2-0.64"}, {"type": "toj", "soa": 100, "probe_key": "f", "reference_key": "j", "probe_element": {}, "reference_element": {}, "fixation_time": 400, "fixation_mark_html": "<img class='toj-fixation-mark absolute-position' src='./images/fixmark.png'></img>", "data": {"probeLeft": true, "salient": false}, "response_key": "f", "response": "probe", "response_correct": false, "measured_soa": 101.61999985575676, "rt": 826.4800000470132, "probeLeft": true, "salient": false, "trial_type": "toj", "trial_index": 81, "time_elapsed": 140739, "internal_node_id": "0.0-5.0-0.2-0.65"}, {"type": "toj", "soa": 0, "probe_key": "j", "reference_key": "f", "probe_element": {}, "reference_element": {}, "fixation_time": 400, "fixation_mark_html": "<img class='toj-fixation-mark absolute-position' src='./images/fixmark.png'></img>", "data": {"probeLeft": false, "salient": true}, "response_key": "j", "response": "probe", "response_correct": true, "measured_soa": 0.08999998681247234, "rt": 1363.469999982044, "probeLeft": false, "salient": true, "trial_type": "toj", "trial_index": 82, "time_elapsed": 142506, "internal_node_id": "0.0-5.0-0.2-0.66"}, {"type": "toj", "soa": -100, "probe_key": "j", "reference_key": "f", "probe_element": {}, "reference_element": {}, "fixation_time": 400, "fixation_mark_html": "<img class='toj-fixation-mark absolute-position' src='./images/fixmark.png'></img>", "data": {"probeLeft": false, "salient": false}, "response_key": "j", "response": "probe", "response_correct": true, "measured_soa": -101.08499997295439, "rt": 713.4599999990314, "probeLeft": false, "salient": false, "trial_type": "toj", "trial_index": 83, "time_elapsed": 143724, "internal_node_id": "0.0-5.0-0.2-0.67"}, {"type": "toj", "soa": -100, "probe_key": "j", "reference_key": "f", "probe_element": {}, "reference_element": {}, "fixation_time": 400, "fixation_mark_html": "<img class='toj-fixation-mark absolute-position' src='./images/fixmark.png'></img>", "data": {"probeLeft": false, "salient": true}, "response_key": "j", "response": "probe", "response_correct": true, "measured_soa": -100.71500018239021, "rt": 960.1100001018494, "probeLeft": false, "salient": true, "trial_type": "toj", "trial_index": 84, "time_elapsed": 145187, "internal_node_id": "0.0-5.0-0.2-0.68"}, {"type": "toj", "soa": 150, "probe_key": "j", "reference_key": "f", "probe_element": {}, "reference_element": {}, "fixation_time": 400, "fixation_mark_html": "<img class='toj-fixation-mark absolute-position' src='./images/fixmark.png'></img>", "data": {"probeLeft": false, "salient": true}, "response_key": "f", "response": "reference", "response_correct": true, "measured_soa": 150.82999994046986, "rt": 658.2550001330674, "probeLeft": false, "salient": true, "trial_type": "toj", "trial_index": 85, "time_elapsed": 146400, "internal_node_id": "0.0-5.0-0.2-0.69"}, {"type": "toj", "soa": 50, "probe_key": "j", "reference_key": "f", "probe_element": {}, "reference_element": {}, "fixation_time": 400, "fixation_mark_html": "<img class='toj-fixation-mark absolute-position' src='./images/fixmark.png'></img>", "data": {"probeLeft": false, "salient": false}, "response_key": "f", "response": "reference", "response_correct": true, "measured_soa": 51.43500003032386, "rt": 1157.799999928102, "probeLeft": false, "salient": false, "trial_type": "toj", "trial_index": 86, "time_elapsed": 148012, "internal_node_id": "0.0-5.0-0.2-0.70"}, {"type": "toj", "soa": -100, "probe_key": "f", "reference_key": "j", "probe_element": {}, "reference_element": {}, "fixation_time": 400, "fixation_mark_html": "<img class='toj-fixation-mark absolute-position' src='./images/fixmark.png'></img>", "data": {"probeLeft": true, "salient": false}, "response_key": "f", "response": "probe", "response_correct": true, "measured_soa": -101.40500008128583, "rt": 1394.1649999469519, "probeLeft": true, "salient": false, "trial_type": "toj", "trial_index": 87, "time_elapsed": 149911, "internal_node_id": "0.0-5.0-0.2-0.71"}, {"type": "toj", "soa": 150, "probe_key": "j", "reference_key": "f", "probe_element": {}, "reference_element": {}, "fixation_time": 400, "fixation_mark_html": "<img class='toj-fixation-mark absolute-position' src='./images/fixmark.png'></img>", "data": {"probeLeft": false, "salient": false}, "response_key": "f", "response": "reference", "response_correct": true, "measured_soa": 151.49000007659197, "rt": 2062.089999904856, "probeLeft": false, "salient": false, "trial_type": "toj", "trial_index": 88, "time_elapsed": 152528, "internal_node_id": "0.0-5.0-0.2-0.72"}, {"type": "toj", "soa": 0, "probe_key": "f", "reference_key": "j", "probe_element": {}, "reference_element": {}, "fixation_time": 400, "fixation_mark_html": "<img class='toj-fixation-mark absolute-position' src='./images/fixmark.png'></img>", "data": {"probeLeft": true, "salient": false}, "response_key": "f", "response": "probe", "response_correct": true, "measured_soa": 0.11499994434416294, "rt": 861.4550000056624, "probeLeft": true, "salient": false, "trial_type": "toj", "trial_index": 89, "time_elapsed": 153793, "internal_node_id": "0.0-5.0-0.2-0.73"}, {"type": "toj", "soa": -50, "probe_key": "f", "reference_key": "j", "probe_element": {}, "reference_element": {}, "fixation_time": 400, "fixation_mark_html": "<img class='toj-fixation-mark absolute-position' src='./images/fixmark.png'></img>", "data": {"probeLeft": true, "salient": true}, "response_key": "f", "response": "probe", "response_correct": true, "measured_soa": -50.414999946951866, "rt": 1339.9650000501424, "probeLeft": true, "salient": true, "trial_type": "toj", "trial_index": 90, "time_elapsed": 155586, "internal_node_id": "0.0-5.0-0.2-0.74"}, {"type": "toj", "soa": 0, "probe_key": "j", "reference_key": "f", "probe_element": {}, "reference_element": {}, "fixation_time": 400, "fixation_mark_html": "<img class='toj-fixation-mark absolute-position' src='./images/fixmark.png'></img>", "data": {"probeLeft": false, "salient": false}, "response_key": "j", "response": "probe", "response_correct": true, "measured_soa": 0.12999982573091984, "rt": 1376.79999996908, "probeLeft": false, "salient": false, "trial_type": "toj", "trial_index": 91, "time_elapsed": 157367, "internal_node_id": "0.0-5.0-0.2-0.75"}, {"type": "toj", "soa": 0, "probe_key": "f", "reference_key": "j", "probe_element": {}, "reference_element": {}, "fixation_time": 400, "fixation_mark_html": "<img class='toj-fixation-mark absolute-position' src='./images/fixmark.png'></img>", "data": {"probeLeft": true, "salient": true}, "response_key": "j", "response": "reference", "response_correct": true, "measured_soa": 0.13999990187585354, "rt": 811.5399999078363, "probeLeft": true, "salient": true, "trial_type": "toj", "trial_index": 92, "time_elapsed": 158582, "internal_node_id": "0.0-5.0-0.2-0.76"}, {"type": "toj", "soa": -150, "probe_key": "f", "reference_key": "j", "probe_element": {}, "reference_element": {}, "fixation_time": 400, "fixation_mark_html": "<img class='toj-fixation-mark absolute-position' src='./images/fixmark.png'></img>", "data": {"probeLeft": true, "salient": true}, "response_key": "f", "response": "probe", "response_correct": true, "measured_soa": -151.3000000268221, "rt": 708.8249998632818, "probeLeft": true, "salient": true, "trial_type": "toj", "trial_index": 93, "time_elapsed": 159844, "internal_node_id": "0.0-5.0-0.2-0.77"}, {"type": "toj", "soa": -50, "probe_key": "j", "reference_key": "f", "probe_element": {}, "reference_element": {}, "fixation_time": 400, "fixation_mark_html": "<img class='toj-fixation-mark absolute-position' src='./images/fixmark.png'></img>", "data": {"probeLeft": false, "salient": false}, "response_key": "j", "response": "probe", "response_correct": true, "measured_soa": -51.07000004500151, "rt": 1193.4449998661876, "probeLeft": false, "salient": false, "trial_type": "toj", "trial_index": 94, "time_elapsed": 161492, "internal_node_id": "0.0-5.0-0.2-0.78"}, {"type": "toj", "soa": 100, "probe_key": "f", "reference_key": "j", "probe_element": {}, "reference_element": {}, "fixation_time": 400, "fixation_mark_html": "<img class='toj-fixation-mark absolute-position' src='./images/fixmark.png'></img>", "data": {"probeLeft": true, "salient": true}, "response_key": "j", "response": "reference", "response_correct": true, "measured_soa": 100.52500013262033, "rt": 853.7850000429899, "probeLeft": true, "salient": true, "trial_type": "toj", "trial_index": 95, "time_elapsed": 162851, "internal_node_id": "0.0-5.0-0.2-0.79"}, {"type": "toj", "soa": 100, "probe_key": "j", "reference_key": "f", "probe_element": {}, "reference_element": {}, "fixation_time": 400, "fixation_mark_html": "<img class='toj-fixation-mark absolute-position' src='./images/fixmark.png'></img>", "data": {"probeLeft": false, "salient": true}, "response_key": "f", "response": "reference", "response_correct": true, "measured_soa": 101.25500010326505, "rt": 770.4149999190122, "probeLeft": false, "salient": true, "trial_type": "toj", "trial_index": 96, "time_elapsed": 164127, "internal_node_id": "0.0-5.0-0.2-0.80"}, {"type": "toj", "soa": -150, "probe_key": "f", "reference_key": "j", "probe_element": {}, "reference_element": {}, "fixation_time": 400, "fixation_mark_html": "<img class='toj-fixation-mark absolute-position' src='./images/fixmark.png'></img>", "data": {"probeLeft": true, "salient": false}, "response_key": "j", "response": "reference", "response_correct": false, "measured_soa": -151.37499989941716, "rt": 853.7350001279265, "probeLeft": true, "salient": false, "trial_type": "toj", "trial_index": 97, "time_elapsed": 165535, "internal_node_id": "0.0-5.0-0.2-0.81"}, {"type": "toj", "soa": 50, "probe_key": "f", "reference_key": "j", "probe_element": {}, "reference_element": {}, "fixation_time": 400, "fixation_mark_html": "<img class='toj-fixation-mark absolute-position' src='./images/fixmark.png'></img>", "data": {"probeLeft": true, "salient": false}, "response_key": "j", "response": "reference", "response_correct": true, "measured_soa": 50.690000178292394, "rt": 1138.0900000222027, "probeLeft": true, "salient": false, "trial_type": "toj", "trial_index": 98, "time_elapsed": 167127, "internal_node_id": "0.0-5.0-0.2-0.82"}, {"type": "toj", "soa": -50, "probe_key": "f", "reference_key": "j", "probe_element": {}, "reference_element": {}, "fixation_time": 400, "fixation_mark_html": "<img class='toj-fixation-mark absolute-position' src='./images/fixmark.png'></img>", "data": {"probeLeft": true, "salient": false}, "response_key": "f", "response": "probe", "response_correct": true, "measured_soa": -51.01500009186566, "rt": 838.3150000590831, "probeLeft": true, "salient": false, "trial_type": "toj", "trial_index": 99, "time_elapsed": 168419, "internal_node_id": "0.0-5.0-0.2-0.83"}, {"rt": 16028, "stimulus": "<p>You finished block 3 of 5.<p/><p>Press any key to continue.</p>", "key_press": 255, "trial_type": "html-keyboard-response", "trial_index": 100, "time_elapsed": 184448, "internal_node_id": "0.0-5.0-1.2"}, {"type": "toj", "soa": 150, "probe_key": "f", "reference_key": "j", "probe_element": {}, "reference_element": {}, "fixation_time": 400, "fixation_mark_html": "<img class='toj-fixation-mark absolute-position' src='./images/fixmark.png'></img>", "data": {"probeLeft": true, "salient": true}, "response_key": "f", "response": "probe", "response_correct": false, "measured_soa": 151.59999998286366, "rt": 1725.9700000286102, "probeLeft": true, "salient": true, "trial_type": "toj", "trial_index": 101, "time_elapsed": 186730, "internal_node_id": "0.0-5.0-0.3-0.84"}, {"type": "toj", "soa": -150, "probe_key": "j", "reference_key": "f", "probe_element": {}, "reference_element": {}, "fixation_time": 400, "fixation_mark_html": "<img class='toj-fixation-mark absolute-position' src='./images/fixmark.png'></img>", "data": {"probeLeft": false, "salient": true}, "response_key": "j", "response": "probe", "response_correct": true, "measured_soa": -151.95000008679926, "rt": 543.3449998963624, "probeLeft": false, "salient": true, "trial_type": "toj", "trial_index": 102, "time_elapsed": 187829, "internal_node_id": "0.0-5.0-0.3-0.85"}, {"type": "toj", "soa": -150, "probe_key": "f", "reference_key": "j", "probe_element": {}, "reference_element": {}, "fixation_time": 400, "fixation_mark_html": "<img class='toj-fixation-mark absolute-position' src='./images/fixmark.png'></img>", "data": {"probeLeft": true, "salient": true}, "response_key": "f", "response": "probe", "response_correct": true, "measured_soa": -151.28999995067716, "rt": 824.9549998436123, "probeLeft": true, "salient": true, "trial_type": "toj", "trial_index": 103, "time_elapsed": 189209, "internal_node_id": "0.0-5.0-0.3-0.86"}, {"type": "toj", "soa": 0, "probe_key": "j", "reference_key": "f", "probe_element": {}, "reference_element": {}, "fixation_time": 400, "fixation_mark_html": "<img class='toj-fixation-mark absolute-position' src='./images/fixmark.png'></img>", "data": {"probeLeft": false, "salient": false}, "response_key": "j", "response": "probe", "response_correct": true, "measured_soa": 0.0950000248849392, "rt": 821.6799998190254, "probeLeft": false, "salient": false, "trial_type": "toj", "trial_index": 104, "time_elapsed": 190433, "internal_node_id": "0.0-5.0-0.3-0.87"}, {"type": "toj", "soa": 100, "probe_key": "f", "reference_key": "j", "probe_element": {}, "reference_element": {}, "fixation_time": 400, "fixation_mark_html": "<img class='toj-fixation-mark absolute-position' src='./images/fixmark.png'></img>", "data": {"probeLeft": true, "salient": true}, "response_key": "j", "response": "reference", "response_correct": true, "measured_soa": 100.43999995104969, "rt": 873.34999977611, "probeLeft": true, "salient": true, "trial_type": "toj", "trial_index": 105, "time_elapsed": 191810, "internal_node_id": "0.0-5.0-0.3-0.88"}, {"type": "toj", "soa": -50, "probe_key": "f", "reference_key": "j", "probe_element": {}, "reference_element": {}, "fixation_time": 400, "fixation_mark_html": "<img class='toj-fixation-mark absolute-position' src='./images/fixmark.png'></img>", "data": {"probeLeft": true, "salient": false}, "response_key": "f", "response": "probe", "response_correct": true, "measured_soa": -51.925000036135316, "rt": 1862.0949999894947, "probeLeft": true, "salient": false, "trial_type": "toj", "trial_index": 106, "time_elapsed": 194127, "internal_node_id": "0.0-5.0-0.3-0.89"}, {"type": "toj", "soa": 100, "probe_key": "j", "reference_key": "f", "probe_element": {}, "reference_element": {}, "fixation_time": 400, "fixation_mark_html": "<img class='toj-fixation-mark absolute-position' src='./images/fixmark.png'></img>", "data": {"probeLeft": false, "salient": true}, "response_key": "f", "response": "reference", "response_correct": true, "measured_soa": 101.12000000663102, "rt": 491.0649999510497, "probeLeft": false, "salient": true, "trial_type": "toj", "trial_index": 107, "time_elapsed": 195123, "internal_node_id": "0.0-5.0-0.3-0.90"}, {"type": "toj", "soa": -100, "probe_key": "j", "reference_key": "f", "probe_element": {}, "reference_element": {}, "fixation_time": 400, "fixation_mark_html": "<img class='toj-fixation-mark absolute-position' src='./images/fixmark.png'></img>", "data": {"probeLeft": false, "salient": true}, "response_key": "j", "response": "probe", "response_correct": true, "measured_soa": -101.22500010766089, "rt": 805.2150001749396, "probeLeft": false, "salient": true, "trial_type": "toj", "trial_index": 108, "time_elapsed": 196433, "internal_node_id": "0.0-5.0-0.3-0.91"}, {"type": "toj", "soa": 50, "probe_key": "j", "reference_key": "f", "probe_element": {}, "reference_element": {}, "fixation_time": 400, "fixation_mark_html": "<img class='toj-fixation-mark absolute-position' src='./images/fixmark.png'></img>", "data": {"probeLeft": false, "salient": false}, "response_key": "f", "response": "reference", "response_correct": true, "measured_soa": 51.405000034719706, "rt": 1186.7300001904368, "probeLeft": false, "salient": false, "trial_type": "toj", "trial_index": 109, "time_elapsed": 198074, "internal_node_id": "0.0-5.0-0.3-0.92"}, {"type": "toj", "soa": 150, "probe_key": "f", "reference_key": "j", "probe_element": {}, "reference_element": {}, "fixation_time": 400, "fixation_mark_html": "<img class='toj-fixation-mark absolute-position' src='./images/fixmark.png'></img>", "data": {"probeLeft": true, "salient": false}, "response_key": "j", "response": "reference", "response_correct": true, "measured_soa": 151.36499982327223, "rt": 394.33000003919005, "probeLeft": true, "salient": false, "trial_type": "toj", "trial_index": 110, "time_elapsed": 199023, "internal_node_id": "0.0-5.0-0.3-0.93"}, {"type": "toj", "soa": -150, "probe_key": "f", "reference_key": "j", "probe_element": {}, "reference_element": {}, "fixation_time": 400, "fixation_mark_html": "<img class='toj-fixation-mark absolute-position' src='./images/fixmark.png'></img>", "data": {"probeLeft": true, "salient": false}, "response_key": "f", "response": "probe", "response_correct": true, "measured_soa": -151.68999996967614, "rt": 395.1799999922514, "probeLeft": true, "salient": false, "trial_type": "toj", "trial_index": 111, "time_elapsed": 199974, "internal_node_id": "0.0-5.0-0.3-0.94"}, {"type": "toj", "soa": -50, "probe_key": "j", "reference_key": "f", "probe_element": {}, "reference_element": {}, "fixation_time": 400, "fixation_mark_html": "<img class='toj-fixation-mark absolute-position' src='./images/fixmark.png'></img>", "data": {"probeLeft": false, "salient": true}, "response_key": "j", "response": "probe", "response_correct": true, "measured_soa": -50.5650001578033, "rt": 619.1899999976158, "probeLeft": false, "salient": true, "trial_type": "toj", "trial_index": 112, "time_elapsed": 201047, "internal_node_id": "0.0-5.0-0.3-0.95"}, {"type": "toj", "soa": 150, "probe_key": "j", "reference_key": "f", "probe_element": {}, "reference_element": {}, "fixation_time": 400, "fixation_mark_html": "<img class='toj-fixation-mark absolute-position' src='./images/fixmark.png'></img>", "data": {"probeLeft": false, "salient": false}, "response_key": "f", "response": "reference", "response_correct": true, "measured_soa": 150.87500005029142, "rt": 316.33000005967915, "probeLeft": false, "salient": false, "trial_type": "toj", "trial_index": 113, "time_elapsed": 201918, "internal_node_id": "0.0-5.0-0.3-0.96"}, {"type": "toj", "soa": -100, "probe_key": "j", "reference_key": "f", "probe_element": {}, "reference_element": {}, "fixation_time": 400, "fixation_mark_html": "<img class='toj-fixation-mark absolute-position' src='./images/fixmark.png'></img>", "data": {"probeLeft": false, "salient": false}, "response_key": "j", "response": "probe", "response_correct": true, "measured_soa": -101.3100000564009, "rt": 2150.889999931678, "probeLeft": false, "salient": false, "trial_type": "toj", "trial_index": 114, "time_elapsed": 204574, "internal_node_id": "0.0-5.0-0.3-0.97"}, {"type": "toj", "soa": 150, "probe_key": "j", "reference_key": "f", "probe_element": {}, "reference_element": {}, "fixation_time": 400, "fixation_mark_html": "<img class='toj-fixation-mark absolute-position' src='./images/fixmark.png'></img>", "data": {"probeLeft": false, "salient": true}, "response_key": "f", "response": "reference", "response_correct": true, "measured_soa": 150.81499982625246, "rt": 640.5450000893325, "probeLeft": false, "salient": true, "trial_type": "toj", "trial_index": 115, "time_elapsed": 205770, "internal_node_id": "0.0-5.0-0.3-0.98"}, {"type": "toj", "soa": -100, "probe_key": "f", "reference_key": "j", "probe_element": {}, "reference_element": {}, "fixation_time": 400, "fixation_mark_html": "<img class='toj-fixation-mark absolute-position' src='./images/fixmark.png'></img>", "data": {"probeLeft": true, "salient": false}, "response_key": "f", "response": "probe", "response_correct": true, "measured_soa": -100.82500008866191, "rt": 904.1049999650568, "probeLeft": true, "salient": false, "trial_type": "toj", "trial_index": 116, "time_elapsed": 207178, "internal_node_id": "0.0-5.0-0.3-0.99"}, {"type": "toj", "soa": 50, "probe_key": "f", "reference_key": "j", "probe_element": {}, "reference_element": {}, "fixation_time": 400, "fixation_mark_html": "<img class='toj-fixation-mark absolute-position' src='./images/fixmark.png'></img>", "data": {"probeLeft": true, "salient": false}, "response_key": "f", "response": "probe", "response_correct": false, "measured_soa": 50.9549998678267, "rt": 964.9000000208616, "probeLeft": true, "salient": false, "trial_type": "toj", "trial_index": 117, "time_elapsed": 208597, "internal_node_id": "0.0-5.0-0.3-0.100"}, {"type": "toj", "soa": -50, "probe_key": "j", "reference_key": "f", "probe_element": {}, "reference_element": {}, "fixation_time": 400, "fixation_mark_html": "<img class='toj-fixation-mark absolute-position' src='./images/fixmark.png'></img>", "data": {"probeLeft": false, "salient": false}, "response_key": "j", "response": "probe", "response_correct": true, "measured_soa": -50.700000021606684, "rt": 1198.6499999184161, "probeLeft": false, "salient": false, "trial_type": "toj", "trial_index": 118, "time_elapsed": 210249, "internal_node_id": "0.0-5.0-0.3-0.101"}, {"type": "toj", "soa": 100, "probe_key": "j", "reference_key": "f", "probe_element": {}, "reference_element": {}, "fixation_time": 400, "fixation_mark_html": "<img class='toj-fixation-mark absolute-position' src='./images/fixmark.png'></img>", "data": {"probeLeft": false, "salient": false}, "response_key": "j", "response": "probe", "response_correct": false, "measured_soa": 100.57000000961125, "rt": 2776.585000101477, "probeLeft": false, "salient": false, "trial_type": "toj", "trial_index": 119, "time_elapsed": 213531, "internal_node_id": "0.0-5.0-0.3-0.102"}, {"type": "toj", "soa": 50, "probe_key": "j", "reference_key": "f", "probe_element": {}, "reference_element": {}, "fixation_time": 400, "fixation_mark_html": "<img class='toj-fixation-mark absolute-position' src='./images/fixmark.png'></img>", "data": {"probeLeft": false, "salient": true}, "response_key": "f", "response": "reference", "response_correct": true, "measured_soa": 51.04499985463917, "rt": 593.7099999282509, "probeLeft": false, "salient": true, "trial_type": "toj", "trial_index": 120, "time_elapsed": 214579, "internal_node_id": "0.0-5.0-0.3-0.103"}, {"type": "toj", "soa": 0, "probe_key": "f", "reference_key": "j", "probe_element": {}, "reference_element": {}, "fixation_time": 400, "fixation_mark_html": "<img class='toj-fixation-mark absolute-position' src='./images/fixmark.png'></img>", "data": {"probeLeft": true, "salient": false}, "response_key": "j", "response": "reference", "response_correct": true, "measured_soa": 0.11499994434416294, "rt": 632.0949997752905, "probeLeft": true, "salient": false, "trial_type": "toj", "trial_index": 121, "time_elapsed": 215615, "internal_node_id": "0.0-5.0-0.3-0.104"}, {"type": "toj", "soa": -150, "probe_key": "j", "reference_key": "f", "probe_element": {}, "reference_element": {}, "fixation_time": 400, "fixation_mark_html": "<img class='toj-fixation-mark absolute-position' src='./images/fixmark.png'></img>", "data": {"probeLeft": false, "salient": false}, "response_key": "j", "response": "probe", "response_correct": true, "measured_soa": -152.01500011608005, "rt": 475.3999998793006, "probeLeft": false, "salient": false, "trial_type": "toj", "trial_index": 122, "time_elapsed": 216644, "internal_node_id": "0.0-5.0-0.3-0.105"}, {"type": "toj", "soa": 100, "probe_key": "f", "reference_key": "j", "probe_element": {}, "reference_element": {}, "fixation_time": 400, "fixation_mark_html": "<img class='toj-fixation-mark absolute-position' src='./images/fixmark.png'></img>", "data": {"probeLeft": true, "salient": false}, "response_key": "j", "response": "reference", "response_correct": true, "measured_soa": 101.64499981328845, "rt": 694.8649999685585, "probeLeft": true, "salient": false, "trial_type": "toj", "trial_index": 123, "time_elapsed": 217844, "internal_node_id": "0.0-5.0-0.3-0.106"}, {"type": "toj", "soa": 50, "probe_key": "f", "reference_key": "j", "probe_element": {}, "reference_element": {}, "fixation_time": 400, "fixation_mark_html": "<img class='toj-fixation-mark absolute-position' src='./images/fixmark.png'></img>", "data": {"probeLeft": true, "salient": true}, "response_key": "j", "response": "reference", "response_correct": true, "measured_soa": 51.58999981358647, "rt": 808.5999998729676, "probeLeft": true, "salient": true, "trial_type": "toj", "trial_index": 124, "time_elapsed": 219107, "internal_node_id": "0.0-5.0-0.3-0.107"}, {"type": "toj", "soa": -50, "probe_key": "f", "reference_key": "j", "probe_element": {}, "reference_element": {}, "fixation_time": 400, "fixation_mark_html": "<img class='toj-fixation-mark absolute-position' src='./images/fixmark.png'></img>", "data": {"probeLeft": true, "salient": true}, "response_key": "j", "response": "reference", "response_correct": false, "measured_soa": -50.774999894201756, "rt": 839.719999814406, "probeLeft": true, "salient": true, "trial_type": "toj", "trial_index": 125, "time_elapsed": 220401, "internal_node_id": "0.0-5.0-0.3-0.108"}, {"type": "toj", "soa": 0, "probe_key": "f", "reference_key": "j", "probe_element": {}, "reference_element": {}, "fixation_time": 400, "fixation_mark_html": "<img class='toj-fixation-mark absolute-position' src='./images/fixmark.png'></img>", "data": {"probeLeft": true, "salient": true}, "response_key": "j", "response": "reference", "response_correct": true, "measured_soa": 0.12500002048909664, "rt": 721.9400000758469, "probeLeft": true, "salient": true, "trial_type": "toj", "trial_index": 126, "time_elapsed": 221526, "internal_node_id": "0.0-5.0-0.3-0.109"}, {"type": "toj", "soa": 0, "probe_key": "j", "reference_key": "f", "probe_element": {}, "reference_element": {}, "fixation_time": 400, "fixation_mark_html": "<img class='toj-fixation-mark absolute-position' src='./images/fixmark.png'></img>", "data": {"probeLeft": false, "salient": true}, "response_key": "j", "response": "probe", "response_correct": true, "measured_soa": 0.1650000922381878, "rt": 2697.9199999477714, "probeLeft": false, "salient": true, "trial_type": "toj", "trial_index": 127, "time_elapsed": 224627, "internal_node_id": "0.0-5.0-0.3-0.110"}, {"type": "toj", "soa": -100, "probe_key": "f", "reference_key": "j", "probe_element": {}, "reference_element": {}, "fixation_time": 400, "fixation_mark_html": "<img class='toj-fixation-mark absolute-position' src='./images/fixmark.png'></img>", "data": {"probeLeft": true, "salient": true}, "response_key": "f", "response": "probe", "response_correct": true, "measured_soa": -101.52500006370246, "rt": 978.7650001235306, "probeLeft": true, "salient": true, "trial_type": "toj", "trial_index": 128, "time_elapsed": 226113, "internal_node_id": "0.0-5.0-0.3-0.111"}, {"rt": 24563, "stimulus": "<p>You finished block 4 of 5.<p/><p>Press any key to continue.</p>", "key_press": 70, "trial_type": "html-keyboard-response", "trial_index": 129, "time_elapsed": 250678, "internal_node_id": "0.0-5.0-1.3"}, {"type": "toj", "soa": -50, "probe_key": "j", "reference_key": "f", "probe_element": {}, "reference_element": {}, "fixation_time": 400, "fixation_mark_html": "<img class='toj-fixation-mark absolute-position' src='./images/fixmark.png'></img>", "data": {"probeLeft": false, "salient": true}, "response_key": "j", "response": "probe", "response_correct": true, "measured_soa": -50.885000033304095, "rt": 735.9499998856336, "probeLeft": false, "salient": true, "trial_type": "toj", "trial_index": 130, "time_elapsed": 251869, "internal_node_id": "0.0-5.0-0.4-0.112"}, {"type": "toj", "soa": 0, "probe_key": "j", "reference_key": "f", "probe_element": {}, "reference_element": {}, "fixation_time": 400, "fixation_mark_html": "<img class='toj-fixation-mark absolute-position' src='./images/fixmark.png'></img>", "data": {"probeLeft": false, "salient": true}, "response_key": "j", "response": "probe", "response_correct": true, "measured_soa": 0.07499987259507179, "rt": 665.4349998570979, "probeLeft": false, "salient": true, "trial_type": "toj", "trial_index": 131, "time_elapsed": 252938, "internal_node_id": "0.0-5.0-0.4-0.113"}, {"type": "toj", "soa": 150, "probe_key": "j", "reference_key": "f", "probe_element": {}, "reference_element": {}, "fixation_time": 400, "fixation_mark_html": "<img class='toj-fixation-mark absolute-position' src='./images/fixmark.png'></img>", "data": {"probeLeft": false, "salient": false}, "response_key": "f", "response": "reference", "response_correct": true, "measured_soa": 151.45000000484288, "rt": 714.6749999374151, "probeLeft": false, "salient": false, "trial_type": "toj", "trial_index": 132, "time_elapsed": 254208, "internal_node_id": "0.0-5.0-0.4-0.114"}, {"type": "toj", "soa": -50, "probe_key": "f", "reference_key": "j", "probe_element": {}, "reference_element": {}, "fixation_time": 400, "fixation_mark_html": "<img class='toj-fixation-mark absolute-position' src='./images/fixmark.png'></img>", "data": {"probeLeft": true, "salient": true}, "response_key": "f", "response": "probe", "response_correct": true, "measured_soa": -50.424999790266156, "rt": 588.7400000356138, "probeLeft": true, "salient": true, "trial_type": "toj", "trial_index": 133, "time_elapsed": 255251, "internal_node_id": "0.0-5.0-0.4-0.115"}, {"type": "toj", "soa": -100, "probe_key": "j", "reference_key": "f", "probe_element": {}, "reference_element": {}, "fixation_time": 400, "fixation_mark_html": "<img class='toj-fixation-mark absolute-position' src='./images/fixmark.png'></img>", "data": {"probeLeft": false, "salient": false}, "response_key": "f", "response": "reference", "response_correct": false, "measured_soa": -101.13000008277595, "rt": 950.4100000485778, "probeLeft": false, "salient": false, "trial_type": "toj", "trial_index": 134, "time_elapsed": 256706, "internal_node_id": "0.0-5.0-0.4-0.116"}, {"type": "toj", "soa": -150, "probe_key": "j", "reference_key": "f", "probe_element": {}, "reference_element": {}, "fixation_time": 400, "fixation_mark_html": "<img class='toj-fixation-mark absolute-position' src='./images/fixmark.png'></img>", "data": {"probeLeft": false, "salient": false}, "response_key": "j", "response": "probe", "response_correct": true, "measured_soa": -152.24500000476837, "rt": 524.7150000650436, "probeLeft": false, "salient": false, "trial_type": "toj", "trial_index": 135, "time_elapsed": 257786, "internal_node_id": "0.0-5.0-0.4-0.117"}, {"type": "toj", "soa": -150, "probe_key": "j", "reference_key": "f", "probe_element": {}, "reference_element": {}, "fixation_time": 400, "fixation_mark_html": "<img class='toj-fixation-mark absolute-position' src='./images/fixmark.png'></img>", "data": {"probeLeft": false, "salient": true}, "response_key": "j", "response": "probe", "response_correct": true, "measured_soa": -151.22499992139637, "rt": 589.4349999725819, "probeLeft": false, "salient": true, "trial_type": "toj", "trial_index": 136, "time_elapsed": 258930, "internal_node_id": "0.0-5.0-0.4-0.118"}, {"type": "toj", "soa": 50, "probe_key": "f", "reference_key": "j", "probe_element": {}, "reference_element": {}, "fixation_time": 400, "fixation_mark_html": "<img class='toj-fixation-mark absolute-position' src='./images/fixmark.png'></img>", "data": {"probeLeft": true, "salient": false}, "response_key": "j", "response": "reference", "response_correct": true, "measured_soa": 50.90499995276332, "rt": 693.6549998354167, "probeLeft": true, "salient": false, "trial_type": "toj", "trial_index": 137, "time_elapsed": 260079, "internal_node_id": "0.0-5.0-0.4-0.119"}, {"type": "toj", "soa": 100, "probe_key": "j", "reference_key": "f", "probe_element": {}, "reference_element": {}, "fixation_time": 400, "fixation_mark_html": "<img class='toj-fixation-mark absolute-position' src='./images/fixmark.png'></img>", "data": {"probeLeft": false, "salient": true}, "response_key": "j", "response": "probe", "response_correct": false, "measured_soa": 101.19999991729856, "rt": 987.1700000949204, "probeLeft": false, "salient": true, "trial_type": "toj", "trial_index": 138, "time_elapsed": 261571, "internal_node_id": "0.0-5.0-0.4-0.120"}, {"type": "toj", "soa": 150, "probe_key": "f", "reference_key": "j", "probe_element": {}, "reference_element": {}, "fixation_time": 400, "fixation_mark_html": "<img class='toj-fixation-mark absolute-position' src='./images/fixmark.png'></img>", "data": {"probeLeft": true, "salient": true}, "response_key": "j", "response": "reference", "response_correct": true, "measured_soa": 151.18500008247793, "rt": 1281.690000090748, "probeLeft": true, "salient": true, "trial_type": "toj", "trial_index": 139, "time_elapsed": 263407, "internal_node_id": "0.0-5.0-0.4-0.121"}, {"type": "toj", "soa": 100, "probe_key": "f", "reference_key": "j", "probe_element": {}, "reference_element": {}, "fixation_time": 400, "fixation_mark_html": "<img class='toj-fixation-mark absolute-position' src='./images/fixmark.png'></img>", "data": {"probeLeft": true, "salient": false}, "response_key": "j", "response": "reference", "response_correct": true, "measured_soa": 101.09000001102686, "rt": 708.3449999336153, "probeLeft": true, "salient": false, "trial_type": "toj", "trial_index": 140, "time_elapsed": 264620, "internal_node_id": "0.0-5.0-0.4-0.122"}, {"type": "toj", "soa": 100, "probe_key": "f", "reference_key": "j", "probe_element": {}, "reference_element": {}, "fixation_time": 400, "fixation_mark_html": "<img class='toj-fixation-mark absolute-position' src='./images/fixmark.png'></img>", "data": {"probeLeft": true, "salient": true}, "response_key": "j", "response": "reference", "response_correct": true, "measured_soa": 101.55999986454844, "rt": 506.88000000081956, "probeLeft": true, "salient": true, "trial_type": "toj", "trial_index": 141, "time_elapsed": 265632, "internal_node_id": "0.0-5.0-0.4-0.123"}, {"type": "toj", "soa": -50, "probe_key": "j", "reference_key": "f", "probe_element": {}, "reference_element": {}, "fixation_time": 400, "fixation_mark_html": "<img class='toj-fixation-mark absolute-position' src='./images/fixmark.png'></img>", "data": {"probeLeft": false, "salient": false}, "response_key": "j", "response": "probe", "response_correct": true, "measured_soa": -51.20499990880489, "rt": 1038.1100000813603, "probeLeft": false, "salient": false, "trial_type": "toj", "trial_index": 142, "time_elapsed": 267124, "internal_node_id": "0.0-5.0-0.4-0.124"}, {"type": "toj", "soa": 150, "probe_key": "j", "reference_key": "f", "probe_element": {}, "reference_element": {}, "fixation_time": 400, "fixation_mark_html": "<img class='toj-fixation-mark absolute-position' src='./images/fixmark.png'></img>", "data": {"probeLeft": false, "salient": true}, "response_key": "f", "response": "reference", "response_correct": true, "measured_soa": 151.0250000283122, "rt": 512.2949997894466, "probeLeft": false, "salient": true, "trial_type": "toj", "trial_index": 143, "time_elapsed": 268191, "internal_node_id": "0.0-5.0-0.4-0.125"}, {"type": "toj", "soa": -50, "probe_key": "f", "reference_key": "j", "probe_element": {}, "reference_element": {}, "fixation_time": 400, "fixation_mark_html": "<img class='toj-fixation-mark absolute-position' src='./images/fixmark.png'></img>", "data": {"probeLeft": true, "salient": false}, "response_key": "f", "response": "probe", "response_correct": true, "measured_soa": -51.15000018849969, "rt": 812.5450001098216, "probeLeft": true, "salient": false, "trial_type": "toj", "trial_index": 144, "time_elapsed": 269457, "internal_node_id": "0.0-5.0-0.4-0.126"}, {"type": "toj", "soa": 0, "probe_key": "f", "reference_key": "j", "probe_element": {}, "reference_element": {}, "fixation_time": 400, "fixation_mark_html": "<img class='toj-fixation-mark absolute-position' src='./images/fixmark.png'></img>", "data": {"probeLeft": true, "salient": true}, "response_key": "f", "response": "probe", "response_correct": true, "measured_soa": 0.11999998241662979, "rt": 834.5800000242889, "probeLeft": true, "salient": true, "trial_type": "toj", "trial_index": 145, "time_elapsed": 270696, "internal_node_id": "0.0-5.0-0.4-0.127"}, {"type": "toj", "soa": -100, "probe_key": "f", "reference_key": "j", "probe_element": {}, "reference_element": {}, "fixation_time": 400, "fixation_mark_html": "<img class='toj-fixation-mark absolute-position' src='./images/fixmark.png'></img>", "data": {"probeLeft": true, "salient": false}, "response_key": "f", "response": "probe", "response_correct": true, "measured_soa": -100.46000010333955, "rt": 474.0500000771135, "probeLeft": true, "salient": false, "trial_type": "toj", "trial_index": 146, "time_elapsed": 271674, "internal_node_id": "0.0-5.0-0.4-0.128"}, {"type": "toj", "soa": -100, "probe_key": "j", "reference_key": "f", "probe_element": {}, "reference_element": {}, "fixation_time": 400, "fixation_mark_html": "<img class='toj-fixation-mark absolute-position' src='./images/fixmark.png'></img>", "data": {"probeLeft": false, "salient": true}, "response_key": "j", "response": "probe", "response_correct": true, "measured_soa": -100.6249999627471, "rt": 727.710000006482, "probeLeft": false, "salient": true, "trial_type": "toj", "trial_index": 147, "time_elapsed": 272905, "internal_node_id": "0.0-5.0-0.4-0.129"}, {"type": "toj", "soa": 0, "probe_key": "j", "reference_key": "f", "probe_element": {}, "reference_element": {}, "fixation_time": 400, "fixation_mark_html": "<img class='toj-fixation-mark absolute-position' src='./images/fixmark.png'></img>", "data": {"probeLeft": false, "salient": false}, "response_key": "j", "response": "probe", "response_correct": true, "measured_soa": 0.090000219643116, "rt": 770.4900000244379, "probeLeft": false, "salient": false, "trial_type": "toj", "trial_index": 148, "time_elapsed": 274079, "internal_node_id": "0.0-5.0-0.4-0.130"}, {"type": "toj", "soa": 150, "probe_key": "f", "reference_key": "j", "probe_element": {}, "reference_element": {}, "fixation_time": 400, "fixation_mark_html": "<img class='toj-fixation-mark absolute-position' src='./images/fixmark.png'></img>", "data": {"probeLeft": true, "salient": false}, "response_key": "f", "response": "probe", "response_correct": false, "measured_soa": 151.48499980568886, "rt": 622.8149998933077, "probeLeft": true, "salient": false, "trial_type": "toj", "trial_index": 149, "time_elapsed": 275256, "internal_node_id": "0.0-5.0-0.4-0.131"}, {"type": "toj", "soa": 50, "probe_key": "j", "reference_key": "f", "probe_element": {}, "reference_element": {}, "fixation_time": 400, "fixation_mark_html": "<img class='toj-fixation-mark absolute-position' src='./images/fixmark.png'></img>", "data": {"probeLeft": false, "salient": true}, "response_key": "j", "response": "probe", "response_correct": false, "measured_soa": 51.83500004932284, "rt": 593.4049999341369, "probeLeft": false, "salient": true, "trial_type": "toj", "trial_index": 150, "time_elapsed": 276305, "internal_node_id": "0.0-5.0-0.4-0.132"}, {"type": "toj", "soa": 100, "probe_key": "j", "reference_key": "f", "probe_element": {}, "reference_element": {}, "fixation_time": 400, "fixation_mark_html": "<img class='toj-fixation-mark absolute-position' src='./images/fixmark.png'></img>", "data": {"probeLeft": false, "salient": false}, "response_key": "f", "response": "reference", "response_correct": true, "measured_soa": 102.01500006951392, "rt": 1534.429999999702, "probeLeft": false, "salient": false, "trial_type": "toj", "trial_index": 151, "time_elapsed": 278346, "internal_node_id": "0.0-5.0-0.4-0.133"}, {"type": "toj", "soa": 50, "probe_key": "j", "reference_key": "f", "probe_element": {}, "reference_element": {}, "fixation_time": 400, "fixation_mark_html": "<img class='toj-fixation-mark absolute-position' src='./images/fixmark.png'></img>", "data": {"probeLeft": false, "salient": false}, "response_key": "f", "response": "reference", "response_correct": true, "measured_soa": 50.844999961555004, "rt": 591.3450000807643, "probeLeft": false, "salient": false, "trial_type": "toj", "trial_index": 152, "time_elapsed": 279392, "internal_node_id": "0.0-5.0-0.4-0.134"}, {"type": "toj", "soa": 0, "probe_key": "f", "reference_key": "j", "probe_element": {}, "reference_element": {}, "fixation_time": 400, "fixation_mark_html": "<img class='toj-fixation-mark absolute-position' src='./images/fixmark.png'></img>", "data": {"probeLeft": true, "salient": false}, "response_key": "j", "response": "reference", "response_correct": true, "measured_soa": 0.049999915063381195, "rt": 610.6850001960993, "probeLeft": true, "salient": false, "trial_type": "toj", "trial_index": 153, "time_elapsed": 280406, "internal_node_id": "0.0-5.0-0.4-0.135"}, {"type": "toj", "soa": -150, "probe_key": "f", "reference_key": "j", "probe_element": {}, "reference_element": {}, "fixation_time": 400, "fixation_mark_html": "<img class='toj-fixation-mark absolute-position' src='./images/fixmark.png'></img>", "data": {"probeLeft": true, "salient": true}, "response_key": "f", "response": "probe", "response_correct": true, "measured_soa": -151.68999996967614, "rt": 870.7799999974668, "probeLeft": true, "salient": true, "trial_type": "toj", "trial_index": 154, "time_elapsed": 281831, "internal_node_id": "0.0-5.0-0.4-0.136"}, {"type": "toj", "soa": 50, "probe_key": "f", "reference_key": "j", "probe_element": {}, "reference_element": {}, "fixation_time": 400, "fixation_mark_html": "<img class='toj-fixation-mark absolute-position' src='./images/fixmark.png'></img>", "data": {"probeLeft": true, "salient": true}, "response_key": "f", "response": "probe", "response_correct": false, "measured_soa": 50.85999984294176, "rt": 976.6950001940131, "probeLeft": true, "salient": true, "trial_type": "toj", "trial_index": 155, "time_elapsed": 283262, "internal_node_id": "0.0-5.0-0.4-0.137"}, {"type": "toj", "soa": -150, "probe_key": "f", "reference_key": "j", "probe_element": {}, "reference_element": {}, "fixation_time": 400, "fixation_mark_html": "<img class='toj-fixation-mark absolute-position' src='./images/fixmark.png'></img>", "data": {"probeLeft": true, "salient": false}, "response_key": "f", "response": "probe", "response_correct": true, "measured_soa": -151.72500000335276, "rt": 1118.3549999259412, "probeLeft": true, "salient": false, "trial_type": "toj", "trial_index": 156, "time_elapsed": 284934, "internal_node_id": "0.0-5.0-0.4-0.138"}, {"type": "toj", "soa": -100, "probe_key": "f", "reference_key": "j", "probe_element": {}, "reference_element": {}, "fixation_time": 400, "fixation_mark_html": "<img class='toj-fixation-mark absolute-position' src='./images/fixmark.png'></img>", "data": {"probeLeft": true, "salient": true}, "response_key": "j", "response": "reference", "response_correct": false, "measured_soa": -101.71999991871417, "rt": 772.6449999026954, "probeLeft": true, "salient": true, "trial_type": "toj", "trial_index": 157, "time_elapsed": 286211, "internal_node_id": "0.0-5.0-0.4-0.139"}, {"type": "toj", "soa": -50, "probe_key": "f", "reference_key": "j", "probe_element": {}, "reference_element": {}, "fixation_time": 400, "fixation_mark_html": "<img class='toj-fixation-mark absolute-position' src='./images/fixmark.png'></img>", "data": {"probeLeft": true, "salient": true}, "response_key": "f", "response": "probe", "response_correct": true, "measured_soa": -51, "rt": 542, "probeLeft": true, "salient": true, "trial_type": "toj", "trial_index": 14, "time_elapsed": 32825, "internal_node_id": "0.0-5.0-0.0-0.0"}, {"type": "toj", "soa": 0, "probe_key": "f", "reference_key": "j", "probe_element": {}, "reference_element": {}, "fixation_time": 400, "fixation_mark_html": "<img class='toj-fixation-mark absolute-position' src='./images/fixmark.png'></img>", "data": {"probeLeft": true, "salient": true}, "response_key": "j", "response": "reference", "response_correct": true, "measured_soa": 0, "rt": 594, "probeLeft": true, "salient": true, "trial_type": "toj", "trial_index": 15, "time_elapsed": 33824, "internal_node_id": "0.0-5.0-0.0-0.1"}, {"type": "toj", "soa": -100, "probe_key": "f", "reference_key": "j", "probe_element": {}, "reference_element": {}, "fixation_time": 400, "fixation_mark_html": "<img class='toj-fixation-mark absolute-position' src='./images/fixmark.png'></img>", "data": {"probeLeft": true, "salient": true}, "response_key": "f", "response": "probe", "response_correct": true, "measured_soa": -102, "rt": 408, "probeLeft": true, "salient": true, "trial_type": "toj", "trial_index": 16, "time_elapsed": 34739, "internal_node_id": "0.0-5.0-0.0-0.2"}, {"type": "toj", "soa": 0, "probe_key": "f", "reference_key": "j", "probe_element": {}, "reference_element": {}, "fixation_time": 400, "fixation_mark_html": "<img class='toj-fixation-mark absolute-position' src='./images/fixmark.png'></img>", "data": {"probeLeft": true, "salient": false}, "response_key": "j", "response": "reference", "response_correct": true, "measured_soa": 0, "rt": 642, "probeLeft": true, "salient": false, "trial_type": "toj", "trial_index": 17, "time_elapsed": 35786, "internal_node_id": "0.0-5.0-0.0-0.3"}, {"type": "toj", "soa": -50, "probe_key": "j", "reference_key": "f", "probe_element": {}, "reference_element": {}, "fixation_time": 400, "fixation_mark_html": "<img class='toj-fixation-mark absolute-position' src='./images/fixmark.png'></img>", "data": {"probeLeft": false, "salient": false}, "response_key": "j", "response": "probe", "response_correct": true, "measured_soa": -51, "rt": 525, "probeLeft": false, "salient": false, "trial_type": "toj", "trial_index": 18, "time_elapsed": 36767, "internal_node_id": "0.0-5.0-0.0-0.4"}, {"type": "toj", "soa": 150, "probe_key": "j", "reference_key": "f", "probe_element": {}, "reference_element": {}, "fixation_time": 400, "fixation_mark_html": "<img class='toj-fixation-mark absolute-position' src='./images/fixmark.png'></img>", "data": {"probeLeft": false, "salient": true}, "response_key": "f", "response": "reference", "response_correct": true, "measured_soa": 151, "rt": 532, "probeLeft": false, "salient": true, "trial_type": "toj", "trial_index": 19, "time_elapsed": 37855, "internal_node_id": "0.0-5.0-0.0-0.5"}, {"type": "toj", "soa": 50, "probe_key": "j", "reference_key": "f", "probe_element": {}, "reference_element": {}, "fixation_time": 400, "fixation_mark_html": "<img class='toj-fixation-mark absolute-position' src='./images/fixmark.png'></img>", "data": {"probeLeft": false, "salient": true}, "response_key": "f", "response": "reference", "response_correct": true, "measured_soa": 51, "rt": 2246, "probeLeft": false, "salient": true, "trial_type": "toj", "trial_index": 20, "time_elapsed": 40557, "internal_node_id": "0.0-5.0-0.0-0.6"}, {"type": "toj", "soa": -50, "probe_key": "f", "reference_key": "j", "probe_element": {}, "reference_element": {}, "fixation_time": 400, "fixation_mark_html": "<img class='toj-fixation-mark absolute-position' src='./images/fixmark.png'></img>", "data": {"probeLeft": true, "salient": false}, "response_key": "j", "response": "reference", "response_correct": false, "measured_soa": -50, "rt": 651, "probeLeft": true, "salient": false, "trial_type": "toj", "trial_index": 21, "time_elapsed": 41664, "internal_node_id": "0.0-5.0-0.0-0.7"}, {"type": "toj", "soa": 0, "probe_key": "j", "reference_key": "f", "probe_element": {}, "reference_element": {}, "fixation_time": 400, "fixation_mark_html": "<img class='toj-fixation-mark absolute-position' src='./images/fixmark.png'></img>", "data": {"probeLeft": false, "salient": false}, "response_key": "f", "response": "reference", "response_correct": true, "measured_soa": 0, "rt": 816, "probeLeft": false, "salient": false, "trial_type": "toj", "trial_index": 22, "time_elapsed": 42884, "internal_node_id": "0.0-5.0-0.0-0.8"}, {"type": "toj", "soa": -100, "probe_key": "j", "reference_key": "f", "probe_element": {}, "reference_element": {}, "fixation_time": 400, "fixation_mark_html": "<img class='toj-fixation-mark absolute-position' src='./images/fixmark.png'></img>", "data": {"probeLeft": false, "salient": true}, "response_key": "j", "response": "probe", "response_correct": true, "measured_soa": -100, "rt": 388, "probeLeft": false, "salient": true, "trial_type": "toj", "trial_index": 23, "time_elapsed": 43777, "internal_node_id": "0.0-5.0-0.0-0.9"}, {"type": "toj", "soa": 150, "probe_key": "j", "reference_key": "f", "probe_element": {}, "reference_element": {}, "fixation_time": 400, "fixation_mark_html": "<img class='toj-fixation-mark absolute-position' src='./images/fixmark.png'></img>", "data": {"probeLeft": false, "salient": false}, "response_key": "f", "response": "reference", "response_correct": true, "measured_soa": 151, "rt": 377, "probeLeft": false, "salient": false, "trial_type": "toj", "trial_index": 24, "time_elapsed": 44708, "internal_node_id": "0.0-5.0-0.0-0.10"}, {"type": "toj", "soa": 100, "probe_key": "f", "reference_key": "j", "probe_element": {}, "reference_element": {}, "fixation_time": 400, "fixation_mark_html": "<img class='toj-fixation-mark absolute-position' src='./images/fixmark.png'></img>", "data": {"probeLeft": true, "salient": false}, "response_key": "j", "response": "reference", "response_correct": true, "measured_soa": 101, "rt": 387, "probeLeft": true, "salient": false, "trial_type": "toj", "trial_index": 25, "time_elapsed": 45602, "internal_node_id": "0.0-5.0-0.0-0.11"}, {"type": "toj", "soa": -100, "probe_key": "f", "reference_key": "j", "probe_element": {}, "reference_element": {}, "fixation_time": 400, "fixation_mark_html": "<img class='toj-fixation-mark absolute-position' src='./images/fixmark.png'></img>", "data": {"probeLeft": true, "salient": false}, "response_key": "f", "response": "probe", "response_correct": true, "measured_soa": -101, "rt": 378, "probeLeft": true, "salient": false, "trial_type": "toj", "trial_index": 26, "time_elapsed": 46484, "internal_node_id": "0.0-5.0-0.0-0.12"}, {"type": "toj", "soa": -150, "probe_key": "j", "reference_key": "f", "probe_element": {}, "reference_element": {}, "fixation_time": 400, "fixation_mark_html": "<img class='toj-fixation-mark absolute-position' src='./images/fixmark.png'></img>", "data": {"probeLeft": false, "salient": true}, "response_key": "j", "response": "probe", "response_correct": true, "measured_soa": -151, "rt": 501, "probeLeft": false, "salient": true, "trial_type": "toj", "trial_index": 27, "time_elapsed": 47541, "internal_node_id": "0.0-5.0-0.0-0.13"}, {"type": "toj", "soa": 50, "probe_key": "f", "reference_key": "j", "probe_element": {}, "reference_element": {}, "fixation_time": 400, "fixation_mark_html": "<img class='toj-fixation-mark absolute-position' src='./images/fixmark.png'></img>", "data": {"probeLeft": true, "salient": false}, "response_key": "j", "response": "reference", "response_correct": true, "measured_soa": 51, "rt": 598, "probeLeft": true, "salient": false, "trial_type": "toj", "trial_index": 28, "time_elapsed": 48595, "internal_node_id": "0.0-5.0-0.0-0.14"}, {"type": "toj", "soa": 100, "probe_key": "f", "reference_key": "j", "probe_element": {}, "reference_element": {}, "fixation_time": 400, "fixation_mark_html": "<img class='toj-fixation-mark absolute-position' src='./images/fixmark.png'></img>", "data": {"probeLeft": true, "salient": true}, "response_key": "j", "response": "reference", "response_correct": true, "measured_soa": 100, "rt": 440, "probeLeft": true, "salient": true, "trial_type": "toj", "trial_index": 29, "time_elapsed": 49540, "internal_node_id": "0.0-5.0-0.0-0.15"}, {"type": "toj", "soa": 50, "probe_key": "f", "reference_key": "j", "probe_element": {}, "reference_element": {}, "fixation_time": 400, "fixation_mark_html": "<img class='toj-fixation-mark absolute-position' src='./images/fixmark.png'></img>", "data": {"probeLeft": true, "salient": true}, "response_key": "j", "response": "reference", "response_correct": true, "measured_soa": 52, "rt": 531, "probeLeft": true, "salient": true, "trial_type": "toj", "trial_index": 30, "time_elapsed": 50527, "internal_node_id": "0.0-5.0-0.0-0.16"}, {"type": "toj", "soa": 150, "probe_key": "f", "reference_key": "j", "probe_element": {}, "reference_element": {}, "fixation_time": 400, "fixation_mark_html": "<img class='toj-fixation-mark absolute-position' src='./images/fixmark.png'></img>", "data": {"probeLeft": true, "salient": false}, "response_key": "j", "response": "reference", "response_correct": true, "measured_soa": 150, "rt": 3768, "probeLeft": true, "salient": false, "trial_type": "toj", "trial_index": 31, "time_elapsed": 54850, "internal_node_id": "0.0-5.0-0.0-0.17"}, {"type": "toj", "soa": -150, "probe_key": "j", "reference_key": "f", "probe_element": {}, "reference_element": {}, "fixation_time": 400, "fixation_mark_html": "<img class='toj-fixation-mark absolute-position' src='./images/fixmark.png'></img>", "data": {"probeLeft": false, "salient": false}, "response_key": "j", "response": "probe", "response_correct": true, "measured_soa": -151, "rt": 441, "probeLeft": false, "salient": false, "trial_type": "toj", "trial_index": 32, "time_elapsed": 55846, "internal_node_id": "0.0-5.0-0.0-0.18"}, {"type": "toj", "soa": 150, "probe_key": "f", "reference_key": "j", "probe_element": {}, "reference_element": {}, "fixation_time": 400, "fixation_mark_html": "<img class='toj-fixation-mark absolute-position' src='./images/fixmark.png'></img>", "data": {"probeLeft": true, "salient": true}, "response_key": "j", "response": "reference", "response_correct": true, "measured_soa": 150, "rt": 418, "probeLeft": true, "salient": true, "trial_type": "toj", "trial_index": 33, "time_elapsed": 56822, "internal_node_id": "0.0-5.0-0.0-0.19"}, {"type": "toj", "soa": 0, "probe_key": "j", "reference_key": "f", "probe_element": {}, "reference_element": {}, "fixation_time": 400, "fixation_mark_html": "<img class='toj-fixation-mark absolute-position' src='./images/fixmark.png'></img>", "data": {"probeLeft": false, "salient": true}, "response_key": "j", "response": "probe", "response_correct": true, "measured_soa": 0, "rt": 2545, "probeLeft": false, "salient": true, "trial_type": "toj", "trial_index": 34, "time_elapsed": 59772, "internal_node_id": "0.0-5.0-0.0-0.20"}, {"type": "toj", "soa": -150, "probe_key": "f", "reference_key": "j", "probe_element": {}, "reference_element": {}, "fixation_time": 400, "fixation_mark_html": "<img class='toj-fixation-mark absolute-position' src='./images/fixmark.png'></img>", "data": {"probeLeft": true, "salient": true}, "response_key": "f", "response": "probe", "response_correct": true, "measured_soa": -151, "rt": 476, "probeLeft": true, "salient": true, "trial_type": "toj", "trial_index": 35, "time_elapsed": 60803, "internal_node_id": "0.0-5.0-0.0-0.21"}, {"type": "toj", "soa": 50, "probe_key": "j", "reference_key": "f", "probe_element": {}, "reference_element": {}, "fixation_time": 400, "fixation_mark_html": "<img class='toj-fixation-mark absolute-position' src='./images/fixmark.png'></img>", "data": {"probeLeft": false, "salient": false}, "response_key": "f", "response": "reference", "response_correct": true, "measured_soa": 50, "rt": 1145, "probeLeft": false, "salient": false, "trial_type": "toj", "trial_index": 36, "time_elapsed": 62402, "internal_node_id": "0.0-5.0-0.0-0.22"}, {"type": "toj", "soa": -50, "probe_key": "j", "reference_key": "f", "probe_element": {}, "reference_element": {}, "fixation_time": 400, "fixation_mark_html": "<img class='toj-fixation-mark absolute-position' src='./images/fixmark.png'></img>", "data": {"probeLeft": false, "salient": true}, "response_key": "j", "response": "probe", "response_correct": true, "measured_soa": -50, "rt": 621, "probeLeft": false, "salient": true, "trial_type": "toj", "trial_index": 37, "time_elapsed": 63480, "internal_node_id": "0.0-5.0-0.0-0.23"}, {"type": "toj", "soa": 100, "probe_key": "j", "reference_key": "f", "probe_element": {}, "reference_element": {}, "fixation_time": 400, "fixation_mark_html": "<img class='toj-fixation-mark absolute-position' src='./images/fixmark.png'></img>", "data": {"probeLeft": false, "salient": true}, "response_key": "f", "response": "reference", "response_correct": true, "measured_soa": 101, "rt": 587, "probeLeft": false, "salient": true, "trial_type": "toj", "trial_index": 38, "time_elapsed": 64572, "internal_node_id": "0.0-5.0-0.0-0.24"}, {"type": "toj", "soa": -100, "probe_key": "j", "reference_key": "f", "probe_element": {}, "reference_element": {}, "fixation_time": 400, "fixation_mark_html": "<img class='toj-fixation-mark absolute-position' src='./images/fixmark.png'></img>", "data": {"probeLeft": false, "salient": false}, "response_key": "j", "response": "probe", "response_correct": true, "measured_soa": -101, "rt": 516, "probeLeft": false, "salient": false, "trial_type": "toj", "trial_index": 39, "time_elapsed": 65594, "internal_node_id": "0.0-5.0-0.0-0.25"}, {"type": "toj", "soa": 100, "probe_key": "j", "reference_key": "f", "probe_element": {}, "reference_element": {}, "fixation_time": 400, "fixation_mark_html": "<img class='toj-fixation-mark absolute-position' src='./images/fixmark.png'></img>", "data": {"probeLeft": false, "salient": false}, "response_key": "f", "response": "reference", "response_correct": true, "measured_soa": 101, "rt": 508, "probeLeft": false, "salient": false, "trial_type": "toj", "trial_index": 40, "time_elapsed": 66606, "internal_node_id": "0.0-5.0-0.0-0.26"}, {"type": "toj", "soa": -150, "probe_key": "f", "reference_key": "j", "probe_element": {}, "reference_element": {}, "fixation_time": 400, "fixation_mark_html": "<img class='toj-fixation-mark absolute-position' src='./images/fixmark.png'></img>", "data": {"probeLeft": true, "salient": false}, "response_key": "f", "response": "probe", "response_correct": true, "measured_soa": -150, "rt": 650, "probeLeft": true, "salient": false, "trial_type": "toj", "trial_index": 41, "time_elapsed": 67812, "internal_node_id": "0.0-5.0-0.0-0.27"}, {"rt": 1169, "stimulus": "<p>You finished block 1 of 5.<p/><p>Press any key to continue.</p>", "key_press": 32, "trial_type": "html-keyboard-response", "trial_index": 42, "time_elapsed": 68982, "internal_node_id": "0.0-5.0-1.0"}, {"type": "toj", "soa": -50, "probe_key": "j", "reference_key": "f", "probe_element": {}, "reference_element": {}, "fixation_time": 400, "fixation_mark_html": "<img class='toj-fixation-mark absolute-position' src='./images/fixmark.png'></img>", "data": {"probeLeft": false, "salient": true}, "response_key": "j", "response": "probe", "response_correct": true, "measured_soa": -50, "rt": 503, "probeLeft": false, "salient": true, "trial_type": "toj", "trial_index": 43, "time_elapsed": 69942, "internal_node_id": "0.0-5.0-0.1-0.28"}, {"type": "toj", "soa": -50, "probe_key": "j", "reference_key": "f", "probe_element": {}, "reference_element": {}, "fixation_time": 400, "fixation_mark_html": "<img class='toj-fixation-mark absolute-position' src='./images/fixmark.png'></img>", "data": {"probeLeft": false, "salient": false}, "response_key": "j", "response": "probe", "response_correct": true, "measured_soa": -51, "rt": 535, "probeLeft": false, "salient": false, "trial_type": "toj", "trial_index": 44, "time_elapsed": 70935, "internal_node_id": "0.0-5.0-0.1-0.29"}, {"type": "toj", "soa": -50, "probe_key": "f", "reference_key": "j", "probe_element": {}, "reference_element": {}, "fixation_time": 400, "fixation_mark_html": "<img class='toj-fixation-mark absolute-position' src='./images/fixmark.png'></img>", "data": {"probeLeft": true, "salient": false}, "response_key": "f", "response": "probe", "response_correct": true, "measured_soa": -51, "rt": 516, "probeLeft": true, "salient": false, "trial_type": "toj", "trial_index": 45, "time_elapsed": 71906, "internal_node_id": "0.0-5.0-0.1-0.30"}, {"type": "toj", "soa": -100, "probe_key": "j", "reference_key": "f", "probe_element": {}, "reference_element": {}, "fixation_time": 400, "fixation_mark_html": "<img class='toj-fixation-mark absolute-position' src='./images/fixmark.png'></img>", "data": {"probeLeft": false, "salient": true}, "response_key": "j", "response": "probe", "response_correct": true, "measured_soa": -101, "rt": 1223, "probeLeft": false, "salient": true, "trial_type": "toj", "trial_index": 46, "time_elapsed": 73634, "internal_node_id": "0.0-5.0-0.1-0.31"}, {"type": "toj", "soa": 100, "probe_key": "f", "reference_key": "j", "probe_element": {}, "reference_element": {}, "fixation_time": 400, "fixation_mark_html": "<img class='toj-fixation-mark absolute-position' src='./images/fixmark.png'></img>", "data": {"probeLeft": true, "salient": false}, "response_key": "f", "response": "probe", "response_correct": false, "measured_soa": 100, "rt": 709, "probeLeft": true, "salient": false, "trial_type": "toj", "trial_index": 47, "time_elapsed": 74851, "internal_node_id": "0.0-5.0-0.1-0.32"}, {"type": "toj", "soa": 150, "probe_key": "j", "reference_key": "f", "probe_element": {}, "reference_element": {}, "fixation_time": 400, "fixation_mark_html": "<img class='toj-fixation-mark absolute-position' src='./images/fixmark.png'></img>", "data": {"probeLeft": false, "salient": true}, "response_key": "f", "response": "reference", "response_correct": true, "measured_soa": 150, "rt": 655, "probeLeft": false, "salient": true, "trial_type": "toj", "trial_index": 48, "time_elapsed": 76060, "internal_node_id": "0.0-5.0-0.1-0.33"}, {"type": "toj", "soa": 100, "probe_key": "f", "reference_key": "j", "probe_element": {}, "reference_element": {}, "fixation_time": 400, "fixation_mark_html": "<img class='toj-fixation-mark absolute-position' src='./images/fixmark.png'></img>", "data": {"probeLeft": true, "salient": true}, "response_key": "j", "response": "reference", "response_correct": true, "measured_soa": 100, "rt": 430, "probeLeft": true, "salient": true, "trial_type": "toj", "trial_index": 49, "time_elapsed": 76997, "internal_node_id": "0.0-5.0-0.1-0.34"}, {"type": "toj", "soa": 50, "probe_key": "j", "reference_key": "f", "probe_element": {}, "reference_element": {}, "fixation_time": 400, "fixation_mark_html": "<img class='toj-fixation-mark absolute-position' src='./images/fixmark.png'></img>", "data": {"probeLeft": false, "salient": true}, "response_key": "f", "response": "reference", "response_correct": true, "measured_soa": 49, "rt": 583, "probeLeft": false, "salient": true, "trial_type": "toj", "trial_index": 50, "time_elapsed": 78035, "internal_node_id": "0.0-5.0-0.1-0.35"}, {"type": "toj", "soa": -150, "probe_key": "j", "reference_key": "f", "probe_element": {}, "reference_element": {}, "fixation_time": 400, "fixation_mark_html": "<img class='toj-fixation-mark absolute-position' src='./images/fixmark.png'></img>", "data": {"probeLeft": false, "salient": false}, "response_key": "j", "response": "probe", "response_correct": true, "measured_soa": -151, "rt": 1062, "probeLeft": false, "salient": false, "trial_type": "toj", "trial_index": 51, "time_elapsed": 79653, "internal_node_id": "0.0-5.0-0.1-0.36"}, {"type": "toj", "soa": -100, "probe_key": "f", "reference_key"